acc_x, acc_y, angular_z, stamp, 
-0.04001344918414223,0.0026285736008785938,0.00016778538710292366,6961000000,
-0.055002500883370595,0.004979908507600538,0.0003862850605122395,6966000000,
-0.0849316775414921,0.006873298615762378,-9.966441576070947e-05,6971000000,
-0.06177368563679943,0.013086547050109296,0.00019473423162349435,6978000000,
-0.04371682920184245,0.022341383231878082,0.00010837167674101172,6983000000,
-0.07457221214057856,-0.01692764219911048,1.5558821580986304e-05,6990000000,
-0.07120282949922449,0.00453019925098729,3.014123195363723e-06,6995000000,
-0.06196010732181195,0.04201067991496999,5.906020767554858e-05,7000000000,
-0.04699427899064072,-0.01941553363167224,0.00014955302434123099,7005000000,
-0.07340313864387155,0.013388134174639866,0.00013672761726612364,7010000000,
-0.06831481248387096,-0.012554030466109423,0.00010537264412446886,7015000000,
-0.0472236969783475,0.00026349144634175395,-0.00013718612990195236,7020000000,
-0.03255102254639447,0.029811015376764283,0.00012874184782194682,7025000000,
-0.040867067705041005,0.007342900959364669,-0.00024280335677681682,7030000000,
-0.07723427165100966,0.003876875190522082,0.0002486299355271213,7035000000,
1.5685687224830291,-0.023901741465578663,-8.607989972681837e-05,7040000000,
0.36060383392793977,-0.015308684551863416,-0.00017761725295105542,7045000000,
-0.16556217005618878,0.00013514800623571493,0.00010615663557551329,7050000000,
-0.0840950345071043,-0.013538913297922766,0.0004360741155958329,7055000000,
0.028200596370333675,-0.015123204588949325,0.0001333792302372598,7060000000,
-0.11885867007405576,0.03011041944496325,7.923469165790183e-05,7065000000,
-0.056266188960253836,0.011552722930899128,9.224363278229862e-05,7070000000,
2.0521210651221797,-0.01017885145635525,0.00010378913476346671,7075000000,
-0.20542608178665953,-0.011750051890025589,5.2670554703621654e-05,7080000000,
-0.10203092886636264,-0.012003986360891165,5.519861151630661e-05,7085000000,
0.10246353805088347,0.006766261792830995,-0.00016119464615839377,7090000000,
-0.2505593132263729,0.010436701044356768,7.14053737154545e-05,7095000000,
0.05055558627314136,0.017316730730711456,0.00012946176660481672,7101000000,
-0.2281230706583785,0.01560134069104425,-0.00013561311152127114,7106000000,
2.0410290241788434,0.002366503792695258,-3.179686107504092e-05,7111000000,
-0.06341901472318567,0.01806655821456271,-8.46771277080526e-06,7120000000,
-0.04479309982849737,0.013698059643326389,3.1388837419597525e-05,7130000000,
-0.01923544217536785,-0.030221364907227124,0.0001018840059087093,7135000000,
-0.07555660279802265,3.2566768390001515e-05,-0.00053190086266944,7140000000,
2.061972918777069,-0.004301099919043906,0.00014658814515889327,7145000000,
-0.09116790377732176,-0.015495441018767899,0.0001301789846351961,7150000000,
-0.08508725912212758,-0.020719827670943467,-0.00011311842557540793,7155000000,
-0.01632743869819553,-0.004443932467896077,-0.00017080997003615078,7160000000,
-0.07102132385729118,-0.025583582194258554,7.577114424163314e-05,7165000000,
-0.07288858837996944,0.01231906486911164,0.00033888012564591165,7170000000,
-0.04312207277054515,0.014677102519066173,-1.9095463421122155e-05,7175000000,
-0.0314196320563735,-0.021403380217025494,0.00013865729960770874,7180000000,
-0.030802103743090756,-0.010416733932689052,0.00031465033580473507,7185000000,
-0.04386945346100809,-0.023115833442567946,-5.511804417010179e-05,7190000000,
-0.055898173490460265,-0.010808159628623058,9.098909597623144e-05,7195000000,
-0.04381666068059705,-0.012143023415702404,0.00013322340632568671,7200000000,
-0.05487004287659461,-0.003247241667885389,4.802936384569201e-05,7205000000,
4.086957768218413,0.013236602236838759,0.00013889499701087832,7210000000,
1.3572445261352777,-0.01639990041150803,0.00011419783121111352,7215000000,
-0.13109230510437792,-0.01081130181311331,0.00028982082840094017,7220000000,
-0.09537264054314969,0.01801461242640196,-0.0003163080495158315,7225000000,
-0.04358264390317608,0.028234593690225282,0.00019421982837419555,7230000000,
-0.03137645125378215,0.03730362859237812,5.5037922367436466e-05,7235000000,
-0.038851461270935125,0.0034639007518775583,-0.00017894066045411145,7240000000,
-0.025920970544225003,-0.01433459562511547,-0.0002282844591415691,7245000000,
1.4050040218459117,0.025695206490713843,-8.933958293244038e-05,7250000000,
-0.05066865412046241,-0.02097861819532368,0.00015150777797455115,7255000000,
-0.05937966461180852,-0.005264125650399958,0.00013825368042567253,7260000000,
-0.019862446951206016,-0.004344986238380097,0.00016075437724788596,7265000000,
-0.08049100461142109,0.009476626058421204,-0.000423553850664482,7270000000,
-0.04213186928657867,-0.0024612399173466024,0.00010801385391024871,7275000000,
1.6574198043215036,-0.01833031128049749,0.0001804903184102114,7280000000,
-0.08170740881013772,0.011892637569605373,0.00020091670225528538,7285000000,
-0.05697385403392466,-0.0364524848249244,5.340190019857909e-05,7290000000,
-0.045022823622575606,0.01149669082910585,-0.00010491946849702788,7295000000,
-0.05677859975299545,0.015012836530421835,-0.00014663592332964649,7300000000,
-0.04604664787875197,0.004283592134043499,-2.4964148056339853e-05,7305000000,
-0.01237256885266022,-0.008283369071422353,-0.00027593685577796657,7310000000,
5.0761126144214925,0.007421432353901646,0.00011052873002780067,7315000000,
-0.09938261984502933,0.009886064751527049,0.0002334985678464951,7320000000,
-0.10423164089856352,0.009102152669617152,-0.0001290830010330353,7325000000,
-0.04526681787019284,0.023259337873058658,6.662201019183068e-06,7330000000,
-0.05149299630725362,-0.024465871930720244,3.199706055286004e-05,7335000000,
-0.06194311256093739,0.033279076510783934,-0.00012241871533290563,7340000000,
-0.07596675571087827,-0.011139354279056917,-0.00019042477264454886,7345000000,
3.341081997241764,-0.009525248589085322,0.00043288297618719195,7350000000,
-0.11309135348285858,0.003011403495158869,-0.0002005637542648916,7355000000,
-0.05675928770611372,-0.008184484811801652,0.00018391827410980182,7360000000,
-0.04167915295497204,0.012978601869387514,-5.0632001229603386e-05,7365000000,
-0.042250016561469095,0.012301198083532054,0.00033500675781999637,7370000000,
-0.059684426031650674,-0.013462185737243174,0.000510056274848307,7375000000,
-0.048689620085923035,0.0006890103170012444,-0.00027496676409683737,7380000000,
-0.06714047409659839,-0.016385411024414487,-1.0090596938175107e-05,7385000000,
-0.026897192703743352,0.007396655283730919,3.854884602530269e-05,7390000000,
-0.017648745898500556,-0.010066813408738967,7.44901698891443e-05,7395000000,
-0.042956127552960334,0.03188286179537132,-8.513454821717524e-05,7400000000,
-0.0744193180755546,-0.016907184151510136,0.00010284493590355078,7405000000,
-0.036577704727595625,0.020024951888581288,-6.878521424661828e-05,7410000000,
-0.05569881596506607,-0.01637190562848237,-2.7247742606347243e-05,7415000000,
2.8815419574697154,-0.004538450866834886,-0.0002701563461027769,7420000000,
-0.07296223840695552,0.003604181989026675,-1.505725730682785e-05,7425000000,
-0.08237634803577211,0.01998237443403746,0.0001793152806082483,7430000000,
-0.044183208829848754,-0.0007785288295041303,-0.00023666686508150097,7435000000,
-0.051315265110346966,0.02140492244320297,-3.9533404605867076e-05,7440000000,
-0.06736265429820815,0.017053545583768842,-9.096992938195956e-05,7445000000,
2.0010976482468337,0.023284391665453416,-4.301741632056072e-05,7450000000,
-0.0509341712322246,-0.025932760393481486,-6.721342842613174e-05,7455000000,
-0.06118292376936142,-0.03283115423603786,-0.0004654903202227826,7460000000,
-0.05630249389967952,-0.005837431286560486,-0.00011887618361018902,7465000000,
-0.04520462590674325,-0.01545145715661515,0.00029905153304111954,7470000000,
-0.051157217862138414,0.009902022185429151,-0.00022660831931895918,7475000000,
0.02469347731871866,-0.01314937852359928,-0.0002477457673136034,7480000000,
4.035692512222796,0.01740647631822568,-0.0003066922665822976,7485000000,
-0.10300141731476861,-0.02136193387692503,-4.806667220514273e-08,7490000000,
-0.049320095344991,-0.00042320512427739454,-5.436351392162058e-05,7495000000,
-0.04728597846961386,-0.007619645445369915,-0.0001384896017843542,7500000000,
-0.058882975731389384,-0.0009752064561113155,-0.00038687118140717233,7505000000,
-0.048013392041122024,0.016319992312215627,-0.00022920454521560752,7510000000,
-0.03252497307273974,-0.03450951982100123,0.0003886732248289876,7515000000,
4.053067223252569,-0.009877074679032833,-7.69112432627522e-05,7520000000,
-0.0737783713694797,0.03037341329231871,0.00036574519664323826,7525000000,
-0.04205767948519606,0.005771872869705442,-0.00010463463468320507,7530000000,
-0.03930165219362139,-0.023128373945954534,0.00015727280367131493,7535000000,
-0.042500131869254255,0.05183777555338897,0.00019228869986203414,7540000000,
-0.054445836553175496,-0.01135161169649168,-0.00019232768776170873,7545000000,
-0.05132932727912591,-0.026565253279488145,-0.0002472786123139157,7550000000,
0.9915602418081756,0.014303419804552218,3.9780955349041265e-07,7555000000,
-0.08391619847879166,0.031059584342965355,0.00025006457318853,7560000000,
-0.0717681781870012,-0.004827429265398635,1.1788482828093854e-05,7565000000,
-0.04670983981465417,-0.010343163203581982,-2.9353874113471135e-05,7570000000,
-0.027555553800963587,-0.01073156479027368,-0.0002238561316749715,7575000000,
-0.020749714359520315,-0.02472843579326798,-0.00010664111720339564,7580000000,
-0.057535831995754724,0.0036389230819338955,-1.7289317477918622e-05,7585000000,
-0.06260497507218868,0.015498772910511386,-6.91459167810432e-05,7590000000,
-0.053327386941787694,-0.027360692985081665,8.2264289152355e-05,7595000000,
-0.03148650785119973,0.0016412533089775541,0.00013685609561110536,7600000000,
-0.04577094426722221,0.00230375714415939,0.0005241472613902456,7605000000,
-0.014085527583575157,-0.021264605801504202,0.00015831760071214254,7610000000,
-0.03475157812467727,0.0008400370387849492,-0.00022256629195576254,7615000000,
4.049243808776908,0.025623497163081595,-6.132163593463288e-05,7620000000,
-0.08872499237434739,0.008851402250556594,-0.0001911264852068041,7625000000,
-0.09152251585971657,-0.012176212136816833,-0.0003965628587163032,7630000000,
-0.04115275523380644,0.021324205755247322,-0.00018069598168660145,7635000000,
-0.0382796697023037,0.009285290946929446,-0.00015650555619046126,7640000000,
-0.04062207476279044,-0.046820254378035164,0.00021211987314309006,7645000000,
-0.06885158831688314,-0.025245877680776067,-0.00043402161305268336,7650000000,
4.070388654132525,0.017843898061346272,-0.00015832765473299605,7655000000,
-0.11082246846344451,-0.03781259387134131,0.00016587943975883621,7660000000,
-0.0638993625108266,0.0027533653421335544,-0.00020045389426987615,7665000000,
-0.05756525805686971,0.022953649743329387,-0.00040334775472094207,7670000000,
-0.010581532382634415,0.030818813346765443,-0.00016303990366236797,7675000000,
-0.028928098651858185,-0.015693264639569153,1.8796899880858863e-05,7680000000,
-0.049156375214038636,0.0023445348040629066,-0.00016617277642583744,7685000000,
-0.04667894287894278,-0.015321155645960495,-0.00016910389573431445,7690000000,
-0.04285138105392969,0.021277148473561217,0.0001475538204378795,7695000000,
-0.0392123723835795,0.00018800180474178854,-0.0002705510269796209,7700000000,
-0.06411661252292558,-0.0053586667286548186,0.00011724297555113013,7705000000,
-0.005670459685179083,0.003440729549909037,-9.627951086671864e-05,7710000000,
0.0067799991159795125,-0.01054561530205071,-0.0003463141154078109,7715000000,
1.630295592020461,0.013755238026666705,6.687645620837246e-05,7720000000,
0.3188489744976169,-0.010128525969509066,1.873791138119568e-05,7725000000,
-0.07819214619161727,0.02192532345103044,0.0001753331541461347,7730000000,
-0.04142519134510774,0.002246325791176286,9.34348488927443e-05,7735000000,
-0.0399459222862313,-0.00026562489964106423,-1.1966889486632531e-05,7740000000,
-0.03988787368664466,0.01470767756387736,9.642220908831745e-05,7745000000,
-0.04212818760123916,-0.002591241488419104,-9.952127010301802e-06,7750000000,
3.9649031445184275,0.005076451467154517,2.6519626326192964e-05,7755000000,
0.029706784460968808,0.001064769265612123,-0.0003709691892898461,7760000000,
-0.08849481962128693,0.0004022519126827166,-6.747647863378568e-05,7765000000,
-0.059089479979899905,0.007470415485608295,5.420419959501702e-06,7770000000,
-0.011216200548682703,0.02187351376391403,2.9260047928352084e-05,7775000000,
-0.024521135385404354,-0.007379514887948425,-0.00011981987628645781,7780000000,
-0.03286837578588559,0.026481603473235964,9.492127916224071e-05,7785000000,
2.0303844322398197,-0.002635284524921677,-6.389283008578492e-06,7790000000,
-0.038175858253487245,-0.02183778212088899,-0.00011833936326041713,7795000000,
-0.07050277072790653,0.0012382029554868805,0.00018469451736450476,7800000000,
-0.07433349096588374,-0.00793186133825739,-8.910115374858363e-06,7805000000,
-0.0641815630428304,0.009639369379656277,-4.478138891919931e-05,7810000000,
-0.0043133874909386735,-0.01956229628534547,-6.809082103634875e-05,7815000000,
-0.020101946866737695,5.830068373031483e-05,-0.00019688094114306604,7820000000,
2.0185782208190814,0.002813983705572952,0.00011228768554852335,7825000000,
-0.07509515105167455,0.010064934313888121,6.879290722211525e-05,7830000000,
-0.03637025502304788,-0.0012936778089764392,4.761090229291226e-05,7835000000,
-0.04602768399290046,-0.02890613892398159,2.9683462214021354e-05,7840000000,
-0.011742397835813156,0.0010770259773823158,0.00022286993862798767,7845000000,
-0.032925555414864235,-0.012433586933333109,-2.0285252478371407e-05,7850000000,
-0.038504308538260014,0.019457444961384688,-0.0001568974989804589,7855000000,
2.04852938714459,0.006899101321188951,0.0002047839448026003,7860000000,
-0.0816811104708271,0.010670241212746153,0.0001510882272717348,7865000000,
-0.07658351107411801,0.007472813944700677,-0.0001158353416207601,7870000000,
-0.06487669696280096,0.0063108634775782685,9.91057265253748e-05,7875000000,
-0.06140787131344244,0.019043534699351574,2.243352457441221e-05,7880000000,
-0.03365881422403351,-0.025899214578897035,3.228371076442982e-05,7885000000,
3.3032303143157598,0.00841172319767363,9.101536010097876e-05,7890000000,
0.9530845423360886,0.008630575188089355,-0.00010441985670406051,7895000000,
-0.08873566875955703,0.010808997049317641,0.00021645050792824114,7900000000,
-0.06420908274654365,0.011746446920449016,0.00013839739451692885,7905000000,
-0.053850135235628045,0.03324813014468199,0.00013796522153077277,7910000000,
-0.030353185038887346,0.016583077739860803,0.00017358316557681747,7915000000,
-0.029256875498609364,-0.007865108412141969,0.00029741389318558784,7920000000,
1.6046398998988862,0.00397598076060794,-3.3864333044227314e-05,7925000000,
-0.005928357347017516,-0.007247179584814468,-0.00027860387598569836,7930000000,
-0.06762140455923389,0.015438399872987188,-6.9135208777745364e-06,7935000000,
-0.01917792032045079,0.019987978120544838,-0.0001284334154384735,7940000000,
-0.010511882507899448,-0.021423879495664554,-7.985458639058665e-05,7945000000,
-0.001562552027787642,-0.002882063399751443,-0.0003220165638721724,7950000000,
-0.04318499135770307,0.00783362923664019,-5.6896531803269416e-05,7955000000,
4.065132324146681,0.007957643514132704,-3.095847549064222e-05,7960000000,
-0.09896752624289243,0.020079328466097064,-0.00014266066257855807,7965000000,
-0.043327981824435466,0.027657658373669864,-7.287163989528609e-05,7970000000,
-0.044126065783465375,-0.0004428507201739559,0.00026579915421289424,7975000000,
-0.03188664878125819,0.035104769318522945,-3.619480563302938e-05,7980000000,
-0.016535598805870147,0.01717809933305319,0.0001692691209193045,7986000000,
-0.0153540253039657,-0.01026502988470326,-0.00025572381225629333,7991000000,
4.035872897002548,-0.04137693015657533,-8.530475051998876e-05,7996000000,
-0.10442039357717386,0.025956672955741767,-0.0002147497980741315,8001000000,
-0.040515053597536085,-0.035372597292867264,5.137430316746115e-05,8006000000,
-0.028166709697293485,0.004992050476588775,-0.00010773517347483465,8011000000,
-0.0284719134132687,0.0008365514743115864,-6.302350048706249e-06,8016000000,
-0.06813912295294902,0.022068512371211265,-0.00021634353870979682,8021000000,
-0.03136758717553204,0.0013971658155419865,-0.000251243214574341,8026000000,
1.643330230104404,-0.02827727313194657,3.4848654799209106e-05,8031000000,
-0.0528078468686606,-0.013293502469709628,-9.967768110346139e-05,8036000000,
-0.037721207215051476,0.018393636270241456,-7.070160560813622e-05,8041000000,
-0.011175319940028277,0.03415725301485988,0.00019011286743731836,8046000000,
-0.037444510916014695,0.02599636496162764,-5.824268312934173e-06,8051000000,
-0.021893778880249133,0.01771661439095571,0.0001598009547009294,8056000000,
2.071155235103009,-0.02455618265222911,0.00014405640018779598,8061000000,
0.2660680058401304,0.005311281459000654,2.4560324375718007e-06,8066000000,
-0.026673398286133323,-0.01704416627114922,0.00039270399988966314,8071000000,
-0.046924651205298165,-0.01860547646368747,0.00020726652388258318,8076000000,
-0.036331067545319624,-0.005833661812431972,-2.2284161452110252e-05,8081000000,
-0.05748896803695358,-0.00666467008430439,0.0001274777849387881,8086000000,
-0.03383258466460426,-0.011450359015296277,0.0001510378029693623,8091000000,
2.0162443472612623,-0.003125494740665134,-6.144110049069763e-05,8096000000,
-0.06934985730870644,-0.03064821925712389,-1.884128604775252e-05,8101000000,
-0.03438669384250177,0.022085607943530067,0.000125619449253695,8106000000,
-0.02214984025578462,0.025103161839729972,-6.134444366018325e-05,8111000000,
-0.030442892827829936,0.020091028994051616,-2.6237838497362743e-05,8116000000,
-0.054712819050661984,0.020972849738847887,0.000362178705025965,8121000000,
-0.04047318624115642,0.018260014437230822,-5.5066282011754624e-05,8126000000,
2.517500571112175,-0.00012364950590326414,-0.00013169795007972717,8131000000,
-0.05492005352862528,0.011715834247818203,-7.9113638986156e-05,8137000000,
-0.032447268937935765,0.011329806476237648,0.0003063122918254166,8142000000,
-0.022331568422186407,-0.013696318428317446,3.904978172587055e-05,8147000000,
-0.024495649632377988,-0.004822316372856719,0.00016185151745066643,8152000000,
-0.04067425729814363,-0.02440905718551091,0.00016005103095973795,8157000000,
3.2909398388669913,-0.006434782063793348,3.418183807733097e-05,8162000000,
0.6936741799289193,-0.0018945769245226971,0.00010748054590935617,8167000000,
-0.10718713733726155,0.0005437943778578717,0.0002051013971560616,8172000000,
-0.0625361155991481,-0.0008789597434505806,7.249188492579342e-05,8177000000,
-0.027897081551426166,-0.01490988656866268,3.879037338117546e-05,8182000000,
-0.035383923142165055,-0.0016379760987346387,-0.00013498403425926577,8187000000,
-0.07037759771023719,0.019615843306892387,0.00017597806522097383,8192000000,
1.9643547776213293,0.02050411515250841,-0.00017316757095579876,8197000000,
0.004800050140369472,0.04205105177901568,-4.825051156325068e-05,8202000000,
-0.06690246589179319,0.031822642761273785,-4.0498008019024e-05,8207000000,
-0.06374204160209011,0.023317961672442773,6.811474251355457e-05,8212000000,
-0.06557177572130454,-0.029887545461652548,8.720072760388718e-05,8218000000,
-0.01829502503635923,0.028885906106047552,0.0001967855709841685,8223000000,
-0.07823158488039132,-0.009012682990088965,0.00013025662373747186,8228000000,
2.0211977375664967,0.0038922548576619427,0.00032595894510097664,8233000000,
-0.0759128712257553,0.016788022887260293,-2.887093395242847e-05,8238000000,
-0.043753636892199646,0.0032608336171850074,0.00020756933735804922,8243000000,
-0.04723513260136617,0.006246489822380894,-0.00021616738819698583,8248000000,
-0.05802747941539507,0.008369354672015734,0.0002380491736877775,8254000000,
-0.015406228112213746,-0.010462286909902245,-8.218267393865039e-05,8259000000,
1.6355939811734173,0.01054250522584768,-0.00019788875665478544,8264000000,
0.34064365189648044,-0.031375472894414065,0.0002202389927867286,8269000000,
-0.03666507034289633,-0.022780077983017285,-9.157094430897403e-05,8274000000,
-0.0369504367208076,0.004867551918974783,0.00010540715148529424,8279000000,
-0.019805247955615165,-0.004458537809446757,-9.413555633290594e-05,8284000000,
-0.019130548348731014,0.04188159527530251,5.9695706983784073e-05,8289000000,
-0.06310921990789733,0.004991953348718865,-0.0003862363926527854,8294000000,
4.13111350686727,0.0006339080653660922,-5.2895909852398726e-05,8299000000,
0.7365573471440201,0.030230554986919782,5.6581673934182636e-05,8304000000,
-0.06748561569228897,-0.0067405863876811726,1.0061449690300941e-05,8309000000,
-0.05691641128730641,-0.00758380078066919,0.00015193797671036929,8314000000,
-0.017372183864649567,-0.01471327933690603,0.00012449480822003815,8319000000,
-0.020128750943575996,0.0025338125948002046,4.659976508987451e-05,8324000000,
-0.0294693629493717,0.0011580829394589338,-0.0003392744521353232,8329000000,
4.087862961178296,-0.015182482182980508,-8.855063702362371e-05,8334000000,
-0.08501498990075235,-0.002252119881094063,0.00011477689063194916,8339000000,
-0.0587164097727797,-0.021734367059781896,-0.00016633265627739893,8345000000,
-0.03926553963101368,0.005349903032231071,5.685469956262703e-05,8351000000,
-0.0538053412930727,-0.0017262087755270654,6.263428405252094e-05,8358000000,
-0.017608141205232887,-0.0011611211613136525,0.00013330505661123608,8363000000,
2.0438071359659626,-0.013355008080367495,-0.00013255855026831525,8368000000,
-0.026616369091563147,-0.013383307239191835,-2.848102159913141e-05,8373000000,
-0.046066839250455724,0.005208528034580365,1.4437303018906542e-05,8380000000,
-0.024519368461857365,0.004142095231712253,-6.965442332580724e-05,8386000000,
-0.021462488718522542,0.007069636508941016,1.0689699734122752e-05,8391000000,
-0.038759336250463405,0.01248537293007696,0.0001239672572876855,8396000000,
1.4413566296025035,0.003179575832658846,-2.3161212501856353e-05,8402000000,
-0.04998529558475831,0.0005439123806756209,0.0002307800969095724,8407000000,
-0.06992767900680205,-0.004278582911802045,0.0002477808774544476,8412000000,
-0.038040674666447304,-0.018628620668781223,-0.00023473897438283238,8417000000,
-0.010946144026867777,0.0010119130094459147,0.00025044906893856734,8422000000,
-0.04199872478981399,0.02337797645994488,8.333343096114345e-05,8427000000,
-0.033717818452266006,-0.00839762777155832,-9.861921260949678e-05,8432000000,
2.0484182446960237,0.00028304852571419575,-0.00010065424135727754,8437000000,
-0.04783086414550736,-0.02100558537710512,0.00012790772398612736,8442000000,
-0.029408921517327418,-0.009083724898236672,-0.00015482984364992172,8447000000,
-0.022790422643293267,-0.04199637314045046,-0.0002455111539641552,8452000000,
-0.029618048662770343,-0.006604232345879598,1.1137754053766076e-06,8457000000,
-0.03678401700439696,-0.012152100296262316,6.389496168914571e-05,8462000000,
-0.0013009305519447664,-0.011573717752651808,-2.0178001724536132e-05,8467000000,
1.9944597864061284,0.000621239687352814,8.278782988787169e-05,8472000000,
-0.05566405836421499,0.029163338352072736,-0.00018872499455615637,8477000000,
-0.03264812623303211,0.017229784832737512,-8.808244557550886e-05,8482000000,
-0.017587570875637372,-0.022679413107340198,0.0005767937740472666,8488000000,
-0.022972831275956885,-0.011365940525301309,-0.00011207367839570865,8493000000,
-0.0030634183162621155,-0.0034822609091632,0.0001369908687065917,8501000000,
2.0117856583837135,0.0049282515342069615,-0.00025337742169139637,8506000000,
-0.06843318920289522,-0.0033894454524493584,0.00019729780324860278,8511000000,
-0.025028563384386304,-0.018712306380970545,7.93039952547097e-05,8516000000,
-0.06996273036609753,0.0018053423326348803,-3.918370531778337e-05,8521000000,
-0.0029002330190252106,0.008401101423231668,0.00011855918345835169,8526000000,
-0.004793326818279615,-0.02736489025938721,0.00016648504587602134,8531000000,
1.6625783419238835,0.006085380042737136,1.3725195556886665e-06,8536000000,
0.44417532843486573,0.03360878311358128,-0.00019573517433747156,8541000000,
-0.04805717054373444,-0.0035586774231430337,3.886218878627297e-05,8546000000,
-0.03599524746940403,-0.043916558477886336,-4.208546314170995e-05,8551000000,
-0.029890761755038762,-0.006624769699595177,-6.533407147620397e-05,8556000000,
-0.039626641138961936,0.022284557096478898,3.330506435505908e-05,8561000000,
-0.027261067577214956,-0.0039683268166801206,3.9464854587656276e-05,8566000000,
-0.04390582507166452,0.022004334673475675,6.35930980921043e-05,8571000000,
-0.04103791955509487,-0.0035009417213303497,3.467334562358745e-05,8576000000,
-0.03682229792882151,0.01780698368967161,4.420139271123991e-05,8581000000,
-0.04219771542048661,0.03809159391112796,0.000277532918661831,8586000000,
-0.014001501694170724,0.002534749067596427,-7.993722799213284e-05,8591000000,
-0.03913162038047991,0.003071452794669755,-8.493435918624826e-05,8596000000,
-0.028663241085954933,0.005562174681234633,-9.949934962331769e-05,8601000000,
-0.020873867704991944,-0.011623251381741103,-0.00015283445327747867,8606000000,
3.767417341187478,0.0034691346276166223,-0.0002217336581872411,8611000000,
-0.0702184598915123,0.00600087572298142,-0.00025051278457169823,8616000000,
-0.037194203588647584,0.012388300424280805,3.7849581328578486e-05,8621000000,
-0.01848559407913843,-0.012528634581666611,-0.00031512623079175327,8626000000,
-0.0016819062968874872,-0.015473778118060274,-0.00018123033500190157,8631000000,
-0.05119492406347509,0.03106200723359966,0.00035394171387359764,8636000000,
-0.03403477015817043,-0.017607878256506327,0.00013571636593267414,8641000000,
1.0911501409227078,-0.004165180084800378,-0.0003231741110137134,8646000000,
-0.019427453299845816,0.023562718762747917,-0.0001148279112913319,8651000000,
-0.033820276707808974,-2.5327042793639844e-05,5.9895191244355836e-05,8656000000,
-0.020832480059736005,0.0009358641435903628,-0.0005140303083313212,8661000000,
-0.03065266292816508,0.006105883877687953,-0.00020056004116894628,8666000000,
-0.029047716047959117,-0.0024946370816151166,-0.00011713800736401917,8671000000,
1.109381499064849,0.015724623501364117,-9.197470659483955e-05,8676000000,
-0.07131880698509628,-0.009442584218209774,-5.097227250048406e-05,8681000000,
-0.057193023396551364,0.017504590803401825,0.00025058050390843443,8686000000,
-0.005337039842044911,0.014604274975707349,-5.450240368701491e-05,8691000000,
-0.03290387476926381,-0.008307708713256038,0.0003380798349673554,8696000000,
-0.02333157252386927,-0.008460680608138704,-0.0001080244641033101,8701000000,
-0.03812119068645666,0.012232500631218472,5.5988294383503095e-05,8706000000,
1.2316030528601658,0.017768326127990255,-6.82862759649368e-05,8711000000,
-0.06763464417346197,0.005956459315628436,1.1143900309060595e-05,8716000000,
-0.03661626248886077,0.007493779617658147,-0.0001581134232795099,8721000000,
-0.04186061600006996,0.00020007944268047564,-8.14641001143537e-05,8726000000,
-0.044772677720858925,0.005006195659745572,7.886314416627277e-05,8731000000,
-0.02491055855232052,-0.009532800730633081,-0.00012950428654416967,8736000000,
1.9631049818406257,0.004901752386438155,0.00021039617618245657,8741000000,
0.013519290812658444,0.013799462228836238,-9.812179604182502e-05,8746000000,
-0.03701131519152337,0.026833489796799302,0.0003042667471324388,8751000000,
-0.024766944603903863,-0.018959874050857414,0.0003445243480538428,8756000000,
-0.038086996725046306,-0.0001153585801303721,0.0001633279783969485,8761000000,
-0.05084565896782128,0.007309927390547465,-0.00010029803490830351,8766000000,
-0.0647162727455427,0.022717007278900195,4.933310041236278e-05,8771000000,
1.6771944214188934,2.612345766358419e-05,0.0001370013238085356,8776000000,
-0.07300419223409382,-0.004573365065944814,0.0001599684148632757,8781000000,
-0.04343659517576075,0.007216375931605061,0.0001831387443880985,8786000000,
-0.01865147923387638,0.0025582130173578354,5.6585906086716244e-05,8791000000,
-0.041036368492342684,-0.027959132354427436,-9.380076328992717e-05,8796000000,
-0.03010713907974665,0.02528494066856061,0.0007441871883035782,8801000000,
-0.03210176069183097,-0.0032319919154581806,-0.00023488633437144155,8806000000,
8.321067062606124,-0.015850882010458728,9.159127310532186e-05,8811000000,
0.4613777275574952,0.003004092954954818,0.0005347412357763409,8816000000,
-0.034319969151941826,-0.006080691574437887,6.0513138216163674e-05,8821000000,
-0.039918396354238606,0.025406218767017902,-5.622644869036537e-05,8826000000,
-0.030255019034166507,-0.003038699126290146,9.036903262792962e-05,8831000000,
-0.03479337720105534,0.034973093126613425,-9.554523672183855e-05,8836000000,
-0.061562645092649235,-0.005395551584103131,-6.697967544143509e-05,8841000000,
2.029776844998956,-0.013787688636480952,-2.484677464802619e-05,8846000000,
-0.06441902250454824,0.005914576754300546,0.00018408777174605675,8851000000,
-0.03291587236423119,0.0018892219187230106,0.0001713904374997266,8856000000,
-0.007435035113286241,0.00272746313614465,-0.0002767186957384891,8861000000,
-0.02846773189581156,0.005690999483486159,0.00024409132917536136,8866000000,
-0.06751482732117568,0.011214843214842422,-0.00015557419986615464,8871000000,
-0.06085653576429166,0.0024873851633803743,0.0002172789470323619,8876000000,
3.3644076831742753,0.014393173162976357,-0.0005193166320018957,8881000000,
-0.09607108223550348,0.014641025142194017,0.00034854735186467774,8886000000,
-0.0469696462342974,0.015513480269190968,-7.751465444121956e-05,8891000000,
-0.05021983169746261,-0.003631307911937258,0.00021904511119777447,8896000000,
-0.04282643046820543,-0.007400991389579313,-0.00010520188709350178,8906000000,
2.8209488313933146,0.009917737051057402,0.00027070778292023425,8911000000,
0.02929668396599176,-0.01295262442033729,7.902670504817883e-05,8916000000,
-0.0634200909054406,0.0016440368776159903,1.9987804973283767e-05,8921000000,
-0.04829605886932834,0.0008988670794845152,-0.0002566698020302367,8926000000,
-0.049338595510032626,0.019618618681049332,0.00019111045378066125,8931000000,
-0.0005459298104705385,-0.0028851654251775293,0.0001903589735565513,8936000000,
-0.029591161122472998,0.005072769818741768,0.0001841905810960868,8941000000,
1.9414668004785713,-0.008956070976191844,-0.00012606318458197957,8946000000,
-0.014298920503168423,-0.013754311141614468,-3.658151775358675e-05,8951000000,
-0.05191355037212994,0.012201915807598378,0.00019051242691930348,8956000000,
-0.04875981064673023,0.011170954085555908,1.5416212803065374e-05,8961000000,
-0.035511171061131074,-0.013573224525075743,-4.018360908525178e-05,8966000000,
-0.017609679753589846,0.0046511683852700865,-6.983599428479042e-05,8971000000,
-0.004630234746806645,-0.002990989120199725,0.0004497669214591124,8976000000,
3.3776805959442577,0.010160350167453973,-3.7574529832491496e-05,8981000000,
-0.11630497973385294,-0.006538707667884771,2.979772847913107e-05,8986000000,
-0.06969070477641406,0.02743168937069384,1.6660817891554932e-06,8991000000,
-0.025972249244490715,-0.036332329311422176,6.82781520283375e-05,8996000000,
-0.052401546789188014,-0.02156620571017264,8.278085646054119e-05,9001000000,
-0.03131620078496696,0.010981457745392555,-0.00023196498559796493,9006000000,
-0.019059603018957483,0.0037745867013278195,5.766630721260614e-05,9011000000,
2.0188177826961256,0.019701749139738024,6.40354230639303e-05,9016000000,
-0.05236852889702769,0.017936548612752953,1.4964308463449795e-05,9021000000,
-0.05545313875710574,0.009964760804706837,4.634005012376215e-05,9027000000,
-0.00973394975524931,0.01984259793740318,3.622320744995718e-05,9032000000,
-0.0130524055339423,0.015665151106771427,0.00013191252671610168,9039000000,
-0.057677518164776814,0.00089025564951754,0.00030570619276903244,9045000000,
2.03214062710901,0.0014108315291683489,0.00020745193234964076,9050000000,
-0.05958303621733146,-0.013417140668315689,-0.000224727654987358,9055000000,
-0.080439634119446,-0.03420658020169785,-0.00019484490952167627,9060000000,
-0.029395768317646676,-0.0007573305069357281,-0.0002129712093366807,9071000000,
-0.031799888342096946,-0.0311112096514193,-0.00017976855386539153,9076000000,
1.9681857779922611,-0.007107418433388891,-0.0005146844618720832,9081000000,
-0.004269439446392424,0.0007201492589799971,-0.0003518833796451088,9086000000,
-0.04582830309463658,0.023962682541013934,0.0002840579055362341,9091000000,
-0.012223630488429175,-0.008089983582898343,-0.0002790988222039922,9096000000,
-0.0391351155345685,0.00041828956268086226,-0.00011605718114088742,9101000000,
-0.06206818232965031,-0.007630902717638546,-0.0003702355640331881,9106000000,
-0.034281998127184125,0.0158483881825729,-0.00016675545693362693,9111000000,
4.0507918665801705,0.004942742698059695,0.0002969580007034185,9116000000,
-0.07843608380132658,0.002356199273520175,-2.2677938101521106e-05,9121000000,
-0.04900969092730083,0.012016164963407969,0.00011846534482282706,9126000000,
-0.013793919516038582,0.024081139169983817,0.00030156719106832336,9131000000,
-0.015877505724213432,0.01151738557436029,8.562200505042454e-05,9136000000,
-0.03463566130810837,-0.0011394176998377479,0.0002803595675757285,9141000000,
-0.046903085780841056,-0.01786881117952015,6.520811235744848e-05,9146000000,
2.0308499142824243,0.0060440449509103315,0.00010753128190325708,9151000000,
-0.09444442658851719,-0.021519835931256726,0.00015003415132116904,9156000000,
-0.04855591651560681,0.0023192851795943298,0.00014126180767622847,9161000000,
-0.04714599133384356,-0.008925623312619119,0.00021246715287348588,9166000000,
-0.019571525086487775,0.0007118251349525443,-0.00018174168569619377,9171000000,
-0.03542715070411569,0.024076798555687492,-1.6895873574266988e-05,9176000000,
-0.04403158343142751,0.025449451755683142,-2.7145852139130558e-05,9181000000,
1.6676998669740404,-0.017088497319486223,9.26403004556708e-05,9186000000,
-0.0545984939240992,-0.013921380831937027,3.78690144501562e-05,9191000000,
-0.045373212179644115,0.029961049421641222,0.0003413690431166957,9196000000,
-0.0345582818021438,-0.015759763701059804,-0.00022318594034239397,9201000000,
0.001522522450399029,0.004034518213667766,0.0002548546502772074,9206000000,
-0.04288348611369641,0.01707280204716184,0.00021704011641181917,9211000000,
0.9926745292342312,0.03112777964460978,0.0003674607878611974,9216000000,
0.3460693185788696,0.004750561749174322,-0.00031839869430113835,9221000000,
-0.058304185251849355,0.040583932015096386,0.0002073006833277091,9226000000,
-0.06617651832998822,-0.013890223942074738,0.0003375359119773849,9231000000,
-0.05626989611840095,-0.01759998329490795,-0.00021222889853115423,9236000000,
-0.050093338437403274,-0.014699565587770278,-0.00011095128381201484,9241000000,
-0.02393356565372673,0.02623725695238292,0.0003486116538077059,9246000000,
2.818530943090896,-0.006591381201574736,1.2795186455890795e-05,9251000000,
0.042208383436915166,0.00967681349530001,-4.637466160276592e-06,9256000000,
-0.06453196802464628,0.015223539380732095,-0.00030136030595724703,9264000000,
-0.020667207610307006,-0.02581197241280058,-0.0002343150951743879,9269000000,
-0.05870545175516284,0.01982996816848502,0.0001943623656322268,9274000000,
-0.030705327788011782,0.0007986759404404826,-5.680932590906276e-05,9279000000,
3.30235866437555,-0.004350858299318978,0.00018770997549391865,9284000000,
0.729050259563539,-0.014698476563070889,-0.000218939049550412,9289000000,
-0.07603771011320641,-0.014221730552650164,1.2327204823923122e-05,9294000000,
-0.055658895562196345,-0.002236695590919673,0.0001308570004822213,9299000000,
-0.03439414487742514,-0.020521681414956097,0.0002617284676750196,9304000000,
-0.019393980736602142,0.031901706133295064,-0.00024307793599837437,9309000000,
-0.01943830667160807,0.026634287969298863,0.00011093282934862865,9314000000,
1.6561549518346914,-0.00788503850009151,4.381948123118463e-05,9320000000,
-0.04139421570681713,-0.019999974745211806,-0.0001431629663230661,9325000000,
-0.04775185022315915,-0.008825032928865632,-0.0002000334253264603,9330000000,
-0.029341421498225644,-0.01133142813798177,0.00031500192818918396,9335000000,
-0.04024405312465899,-0.02263891268290235,0.0001374376992000821,9340000000,
-0.030999801240296727,0.0028372746145041705,0.000172612010987642,9345000000,
-0.04647771006000504,-0.011754854936437445,-1.8893509427738685e-05,9350000000,
3.376870395810896,-0.01696216335683824,2.4225596336656744e-05,9355000000,
-0.13193076054670366,-0.002009946214687798,-0.00022109594967752782,9360000000,
-0.045969333534825726,0.012817814046660866,0.0005563372062499179,9365000000,
-0.04099244515517517,0.035193903297498504,0.00010873082394848471,9370000000,
-0.02232550045055911,0.01621837890115669,-0.00041597633076969877,9375000000,
-0.0540625179185875,0.027560749393876028,0.00011011584717822614,9384000000,
2.019181923469225,0.020833188693556628,-0.0005620441823195682,9389000000,
-0.056939140010224244,-0.010112655937594073,0.0003112153868078964,9399000000,
-0.05649790942242941,0.015242436242155629,-0.000346232752348736,9404000000,
-0.04954130993892643,-0.02912024127830308,-0.00013717635519401168,9409000000,
-0.02984625078397489,-0.01324909113492319,-0.0001042168217886457,9414000000,
-0.042708683893696545,-0.024160981832903175,-2.523934429167511e-06,9419000000,
-0.05527888423775365,-0.025590948325028787,1.1334056562624246e-06,9424000000,
0.9958085203494957,-0.030095392077045115,0.00021875284643890815,9429000000,
-0.042640152812159236,-0.007833973755145697,0.0003089422293092374,9434000000,
0.02324215216755362,0.006872643441951276,-9.83873201110333e-05,9439000000,
-0.045112331167398066,-0.005391620688719498,-0.00022189252229997541,9444000000,
-0.031054722292920434,-0.007472441055734176,-3.820940578014025e-05,9449000000,
-0.04131404715873467,-0.0181193073747567,0.00017547699293862833,9454000000,
1.6805531258639308,0.011129978556205098,8.067935830976478e-05,9459000000,
-0.028585226689973382,0.0014497235224603562,-5.409529062147299e-05,9469000000,
-0.015405691689324683,-0.011360496101811333,0.00010571582248456426,9474000000,
-0.0194842574269124,0.0012399263675955988,-0.00013677935783644205,9479000000,
-0.05793691198862453,0.009056720098417568,0.00014330742275210802,9484000000,
2.0731636201463077,0.00830566772215359,-0.00034908490489778013,9489000000,
0.27595526156558986,-0.00972931342697172,-0.0002342878806411465,9494000000,
-0.07115055873396595,-0.013867364617770234,-0.00022751098246458147,9499000000,
-0.00782474248408322,0.002137092802386771,-8.816765064855553e-05,9504000000,
-0.05902115599260442,-0.026891297778409772,-3.3809000654151695e-05,9509000000,
-0.014691153141027969,0.014047668511575497,0.0001813938140657807,9514000000,
-0.021991402574287437,-0.005117227984047534,0.000572158756929697,9519000000,
2.464889411436795,-0.011654676048280785,0.00038212478790343533,9524000000,
-0.02477250846149709,-0.01879529253781662,-5.589851304002427e-05,9529000000,
-0.040025194449177015,-0.02692896107837385,0.0003187626886381977,9534000000,
-0.03797538412484094,-0.008852623462599893,-9.37424827541246e-05,9539000000,
-0.021921758901648464,0.026965023302553248,-0.00025951397538968163,9544000000,
-0.019128342446452402,0.013272366501801499,0.00023290721232401113,9549000000,
-0.052698626893357366,0.031403768407887195,-4.703859918314038e-05,9554000000,
1.6662614018834085,0.028438986496437058,-0.00022196224152109143,9559000000,
-0.06498962735012401,-0.0002603481183879226,-8.630786519904072e-05,9564000000,
-0.051381040099166934,-0.009659185255377631,0.0001282560011103857,9569000000,
-0.053980883026606113,0.022674649829761796,0.0003076878283564899,9574000000,
-0.07404921897411476,-0.008228692898137538,-0.00016292229019029808,9579000000,
-0.04420940413869846,-0.025759837593477036,0.00011239532560311275,9584000000,
-0.02159433154782478,0.0009276103458572702,-2.7578248385360543e-06,9589000000,
1.6701266438541784,-0.02639820325461456,-0.0001465177610626091,9594000000,
-0.07978589757921295,-0.008606317619567622,-0.00019339077213945482,9599000000,
-0.03418283152871704,0.01621158332047087,-6.972889730832493e-05,9604000000,
-0.019775781363621854,-0.007937468809716684,-0.0002628368127294955,9609000000,
-0.03385459160192285,-0.03388032999695957,0.00023037886302508404,9614000000,
-0.05429202550416569,0.010986337219517783,7.729731061858859e-05,9619000000,
1.6605986981324992,0.006151188226539803,-0.0001836100628240329,9624000000,
0.3302381795217155,1.6580381620035574e-05,1.4834152126638723e-05,9629000000,
-0.08189298967136899,0.003204920497723135,0.0001188841762647732,9634000000,
-0.036209236190965735,0.013850133029689555,1.3047902669154378e-05,9639000000,
-0.02257264088993467,-0.018354330511144806,-5.078368541690409e-05,9644000000,
-0.03343671059843357,0.007380516199149542,-0.0003158121947157929,9649000000,
-0.030995731943025615,0.009361864205921238,0.00024693196777310036,9654000000,
0.929974941052453,0.02000414689701552,-1.4667506876880446e-05,9664000000,
-0.071200964309322,0.011731234220666954,0.00016930740682266187,9669000000,
-0.056134342827900724,0.0005735125867781217,-9.691130319750505e-05,9676000000,
0.0006553671852149306,0.016195677149535518,0.00034979325211930947,9681000000,
-0.040990575521873344,0.01698277072279333,0.0002058442631013289,9686000000,
-0.04993778053972575,-0.002662829210178074,-3.1457245240249556e-05,9691000000,
3.400242756621395,-0.013282635749846505,-8.862583130566215e-05,9696000000,
-0.06690342588968005,0.018398479448115783,-0.00016656808819675762,9701000000,
-0.07106859338900581,0.012804744986787228,-6.308698268957966e-05,9706000000,
-0.008497397715560552,0.024295501632109712,-9.240512447412161e-05,9711000000,
-0.03598372910921619,-0.007947418684504414,0.0001205628454590214,9716000000,
-0.037318730077242006,0.014276938941800087,-5.47791136056615e-05,9721000000,
3.2807287712431683,-0.05160113223050555,-5.6259457039231796e-05,9726000000,
0.008109129633367698,0.02445321679780158,-5.725702100661282e-05,9731000000,
-0.08844352658170156,-0.020968565917440844,-7.356555774532569e-05,9736000000,
-0.05642314294811932,0.0031696475211701013,-7.131706408194138e-05,9741000000,
-0.07671415254011628,0.013124863453089422,-0.00012650539264279624,9746000000,
-0.021086332776269714,0.023713045697228964,-3.0506405275267558e-05,9751000000,
-0.056553769963822234,-0.010036812056304757,-0.00025597856141444094,9756000000,
1.9595872903507296,0.03543882908715947,9.556221054657999e-05,9761000000,
-0.02651784621834121,-0.0015195579006742988,-0.00014077899693524536,9766000000,
-0.036468404131951446,0.0057825945121660486,-0.00017901281211808395,9771000000,
-0.06695405209501526,0.027350600033185225,-7.084002057490776e-05,9776000000,
-0.026623116031724278,0.000286313227434665,0.000396634582833059,9781000000,
-0.05600161717018831,0.008878258775110125,-0.00023821928158596995,9786000000,
-0.04306209225533987,-0.005844941958740843,0.0004707375865850721,9791000000,
4.046145083537457,0.0020773176588539033,-7.321176690891813e-07,9796000000,
-0.08587697958348821,-0.031611566023434894,-0.00021942832696895023,9801000000,
-0.08009085236999482,0.011613403869388979,8.654787846906534e-05,9806000000,
-0.047729139381428004,-0.01975537605875758,4.7783579004240434e-05,9811000000,
-0.02618453931040313,-0.007007290623539912,0.00017189110292922262,9816000000,
-0.020846189680980665,0.005783169830414055,0.00019983848599429923,9821000000,
-0.035317175771469665,-6.65143664195253e-05,0.00033308115942983055,9826000000,
2.5229206178666055,0.007909018075458789,0.0001242164257458564,9831000000,
-0.05487828037262203,-0.017678518057294066,-0.0001716423959066119,9836000000,
-0.07982321135994926,-0.02270413351471919,-0.00012939806393124406,9841000000,
-0.07119752397342063,-0.0020790954318972324,6.548042403595433e-05,9846000000,
-0.011427439852712606,0.00435335532802676,-0.0002593182549257985,9851000000,
-0.05471468700511789,-0.002063090126520079,-8.431961475441239e-05,9856000000,
-0.014855104086922099,-0.01439781610367661,-0.0005087906776758866,9861000000,
1.9970792787888498,0.015492087543130322,-0.00013091490960135408,9866000000,
-0.03639315816838411,-0.017571605227046067,2.9955313727795018e-05,9871000000,
-0.04981079854419495,-0.0029148907998534355,0.00012092456772900492,9876000000,
-0.0393387928509478,-0.00965360529020651,0.00014357934524791233,9881000000,
-0.05477315508873186,0.021294277389255316,0.00028648780536770854,9886000000,
-0.05319698045462327,-0.01586687889984505,0.00016830094819165312,9891000000,
-0.057451946091873145,0.003073609333405161,-0.00013722715050737172,9896000000,
1.440274270585101,0.004673467673111096,8.250762769633142e-05,9901000000,
-0.0663182026277605,0.014606340844972553,0.00024546811207767574,9906000000,
-0.012654803806208169,0.008558575148924082,-0.00015201558949417925,9911000000,
-0.0557306243261001,-0.0014124633513729174,-0.0003118456191270522,9916000000,
-0.02984249213703345,0.005892740502124899,0.00019701165173651992,9921000000,
-0.08745515704584586,0.003451178339325814,-7.791774272546549e-05,9926000000,
1.9670376570146024,-0.01606869085895891,-5.903393324786879e-05,9931000000,
-0.04294471580598561,-0.010267516212173021,8.26093851228516e-05,9936000000,
-0.04112112857394211,0.010421114841137127,0.00017997091386789856,9941000000,
-0.05253337951893841,0.020912289725523878,1.6751006334605237e-05,9947000000,
-0.04784041303241969,0.004884542622810386,0.0002390311418360309,9952000000,
-0.02429910038883456,0.022262474499450263,8.889702626252091e-05,9957000000,
1.2416367229900178,-0.012465747280928311,-5.261717638984897e-05,9964000000,
0.022414296814336643,-0.0005582358789715053,-7.978239722284353e-05,9969000000,
-0.06319316339005468,-0.012276301703109588,6.152556929590931e-05,9974000000,
-0.08090006434981828,0.023989662784855717,-0.0003965774873007775,9979000000,
-0.04849268046861814,-0.002104477086231643,-9.776413031037886e-05,9984000000,
-0.05528269886127882,-0.011883938043805305,-0.00022366412494085746,9989000000,
-0.050984523740662514,-0.005076612113618911,0.00020990725504585795,9994000000,
3.9410384475973372,-0.026562501801293836,0.00027788010819375174,9999000000,
0.08762190855375014,0.0004270763763234057,-0.00012870893041136089,10004000000,
-0.1164774684835899,-0.01504426706494515,0.00022451420411814989,10009000000,
-0.04542306724233509,0.00026526654016844405,3.47024410320576e-05,10014000000,
-0.06824936615370396,0.0319714848460706,0.00012011776028577511,10019000000,
-0.060383784122781274,0.007113980357207387,0.00013101359207727715,10024000000,
-0.05123530504660803,-0.007293744949442206,-9.174082288163893e-05,10029000000,
2.0001662382630427,-0.010301135057131339,-0.00020195440101024702,10034000000,
-0.07697033039801794,-0.03585458826341181,-8.358025451736314e-05,10039000000,
-0.09518252988463191,0.03346827788107782,-0.00010798040758712591,10044000000,
-0.07578512517411426,0.010414684994136156,5.998200076508749e-05,10049000000,
-0.021251596943423254,0.014318052192791206,-8.011036828264246e-05,10054000000,
-0.04355793210189497,0.003564125120687498,-0.00019590597268513913,10059000000,
-0.039314181107339405,-0.000976222306852625,0.0003631943204667896,10064000000,
1.6469255083689263,0.004569069369424711,0.00019344755522132366,10069000000,
-0.0947094049834765,0.00814733272266816,-8.61609876723341e-05,10074000000,
-0.03882420260006181,0.009161058057695409,0.00017729403604565736,10079000000,
-0.0655559866627885,0.009554000001428224,9.378049517092714e-05,10084000000,
-0.030115148279478365,0.007145135533462252,6.656960261813328e-06,10089000000,
-0.0614888691070638,0.010317544606689367,-0.0002837801464398803,10094000000,
-0.04844426633424465,0.006878413129628878,0.0002734558476035386,10099000000,
1.2271812894494147,0.015024423710368134,0.0003176008105313195,10104000000,
-0.08815156988191988,-0.020366180243890364,-6.241319026127985e-05,10109000000,
-0.022025322988168505,0.004208560935621235,8.022306405881876e-05,10114000000,
-0.037492791747578524,-0.014872547008159556,3.361182169765123e-05,10119000000,
-0.060142744829631646,-0.005650056546986726,-0.00012134529794393727,10124000000,
-0.07103517669263984,0.04059689349947103,-0.000275260687229928,10129000000,
-0.08214442767546996,0.020262150812803876,0.0004298774743250682,10134000000,
1.6539506595169013,0.006327548791511722,0.0001702082287376436,10139000000,
-0.05522455236702286,-0.00046876793655590524,2.7307955168371644e-05,10144000000,
-0.07886634174785141,-0.01955527409714473,-0.00021834242424439442,10149000000,
-0.061011390840165894,-0.002936812144764699,-0.00024052399217909688,10154000000,
0.01305049812249129,0.004638202221713187,-0.0003332887492555116,10159000000,
-0.12927161999753495,0.016412627693873208,8.544017795808645e-05,10164000000,
2.0255024674947206,-0.03571609546049745,-5.6939838946894565e-05,10169000000,
0.24553154357794704,-0.0206195475346037,2.4346744583693452e-05,10174000000,
-0.05561419574730811,7.384918494942846e-05,0.0001230854429478779,10179000000,
-0.03470781149104485,-0.021840006339665576,-4.787068593748328e-05,10184000000,
-0.023258540421261124,-0.012356868068529635,-1.2227238802624576e-05,10189000000,
0.02525005408557278,0.024486724645905122,0.00021760343802792065,10194000000,
-0.12433848540592894,-0.0314717696979515,0.00019106979077714178,10199000000,
2.0031273790573856,0.0013009428598011795,0.00017652279558402095,10204000000,
0.029028696379664036,-0.00582039171299225,0.00025343014645319605,10209000000,
-0.11820987187641699,0.0011247211449055658,2.8606729838261383e-05,10214000000,
-0.06300115264369088,0.01065682510441169,-0.00016960085233887328,10219000000,
-0.07138396079119702,0.0048115173504255865,8.310569090841522e-05,10224000000,
-0.06098337635124022,0.008695109551127385,-0.00029876878153274746,10229000000,
-0.0018714335841297936,0.0010430424822118745,0.00028931657709945125,10234000000,
1.9054414683565666,0.0037126387768751006,9.683725664774972e-05,10239000000,
-0.03142609077987544,0.023653938816145147,-0.00028995657839089953,10244000000,
-0.12677460067672217,-0.00015039898629052673,-0.0004339098924765348,10249000000,
-0.07492256426763627,0.009071261374084887,-4.630304534754783e-05,10254000000,
-0.07259015305517164,-0.0062124550338498894,-4.4795549841843646e-05,10262000000,
-0.14684671138890124,0.005917101525695102,0.00021513550831957166,10266000000,
0.006179917069411284,0.01314446115737549,6.079715206652486e-05,10271000000,
-0.1259650849995863,-0.010263551641090999,3.7386426581463334e-05,10276000000,
-0.0737147403060491,0.004498776474401577,0.0002726923738160737,10281000000,
0.0019281058874884502,0.025649942253012415,0.00021921993899626208,10286000000,
-0.1140579664552745,0.0049582295903254315,-1.152594331765171e-05,10292000000,
0.01601228279520813,0.015197077874764164,-0.00022043050561680673,10297000000,
-0.12065783996282664,-0.0030612713177347564,-4.1171358010182985e-05,10302000000,
6.057626448726074,0.016487934692942345,6.923105905379319e-05,10307000000,
-0.1123677951004107,0.0187864350174855,-2.8975709503145623e-05,10312000000,
-0.20178319640010742,0.0010567835617622504,7.164296728700863e-05,10317000000,
-0.0007441517015630249,2.5187645236842662e-05,0.00021292618390970306,10322000000,
-0.11562705731291532,0.01083980760870305,8.504480950608445e-05,10327000000,
-0.07161366298384939,-0.00936148005846132,-0.0002610837790576966,10332000000,
-0.009605371758260813,0.003746975228791522,-0.00016698323295162018,10337000000,
0.9165030686080431,-0.006307444907894101,0.00018924207559727527,10347000000,
0.015056203813391414,0.0011265353940610257,0.00023139931185022812,10353000000,
-0.1167521201069443,-0.02410986961123758,1.0643105924339236e-05,10361000000,
-0.0195428496177973,0.024685288339417355,-0.00023686749745902849,10367000000,
-0.11394022302842916,0.009992096324351003,0.0001076009469216142,10372000000,
-0.08053214330214425,0.022158584478373697,0.0002030517902637654,10378000000,
-0.052934261459030366,-0.009974451621187565,0.00033194641688819574,10384000000,
-0.044942577825575876,-0.018952423156980047,-3.797967110072794e-05,10389000000,
-0.050304840913850776,-0.00015334924689598217,-0.00029227023979297895,10394000000,
-0.04365483323785861,-0.017668248935901264,3.34322259967566e-05,10399000000,
-0.060488079738601076,0.021234498737567054,-0.00022137266965737942,10405000000,
1.9581950201701221,-0.002128645926425592,6.618841345148927e-05,10410000000,
-0.10077721439900864,0.004980299083360477,9.589415710238285e-05,10415000000,
-0.018261673892587767,-0.0047466250390161046,-0.00012407497017754147,10420000000,
-0.05864885279566057,0.010540450124903539,-1.6144750573266154e-05,10425000000,
0.02584048320024962,0.001583645595747998,-0.00018624932845201096,10431000000,
-0.08886775475556055,0.005643639667520946,-2.5835091004418173e-05,10437000000,
2.0220747268725487,-0.004776668944319636,0.0002978613623867126,10442000000,
-0.09733597539259375,0.03972140444432615,-6.611054746521836e-05,10448000000,
-0.10826517463849988,-0.0032265203927390324,4.856604015438442e-06,10453000000,
-0.0509279531744019,-0.0021855816728584545,0.0002441636565835585,10458000000,
-0.046348056573223315,0.0023219812514740233,5.428612141467937e-05,10463000000,
-0.06942062626361131,0.011551468255497346,7.050181542752103e-06,10468000000,
-0.05109644988467827,-0.010729696072223457,-2.67971652891141e-05,10473000000,
4.009664813379511,0.05066307299973969,0.00011937625030689589,10478000000,
-0.07454097881084573,0.0030512375274485324,-7.371171867264951e-05,10483000000,
-0.08080484233510205,-0.00808200417591079,0.0005656642027242867,10488000000,
-0.044385779493824586,0.02007063088723384,0.0003026698682360693,10493000000,
-0.07033054837088884,0.013376045475089401,-0.0002311522487783029,10498000000,
-0.049336329421891735,-0.006103832307513599,-0.00041021938066340615,10503000000,
1.6255073875045167,-0.003920543416430167,-0.00019300023988315954,10508000000,
0.3241661263698096,-0.017047806296568907,0.00040627046923458383,10513000000,
-0.09377756226282356,-0.005030942340728171,-0.0004337249640068663,10518000000,
-0.06611277081919535,0.019310826848283124,-0.0002663713356697656,10523000000,
-0.06990845939090974,-0.02586517961252293,-0.00013392810019031498,10528000000,
-0.06568642076561372,-0.019442918385120467,3.558640170225354e-05,10533000000,
-0.061192174739504515,0.031372249463343556,0.00014551901007779194,10538000000,
1.9418041785584603,-0.0059975861764380405,-0.00011737124850899172,10543000000,
-0.030985641612129355,0.007018969855127037,-8.950431190427795e-05,10548000000,
-0.08093083054067864,-0.015110783587558269,-0.0003173559794958258,10553000000,
-0.05502252056430792,-0.002257193335993368,-8.339803114437479e-05,10558000000,
-0.07771765459707063,0.01713484923401926,0.0003824638761452623,10563000000,
-0.058844836393846,0.0176478809955885,-0.00023854851769949015,10568000000,
-0.028322239730371748,-0.018838423543383553,1.4515189823851098e-05,10573000000,
4.904865964127045,-0.011486881420699398,0.000104181984270247,10578000000,
0.00827689601650531,0.003941616751469955,-0.00020370490924333305,10583000000,
-0.06646685211708404,0.005353069834718003,3.3640055675308707e-05,10588000000,
-0.08146231824922207,0.04848438840998655,-0.00019075711338676328,10593000000,
-0.04269465990073759,-0.0073085565371769625,0.00019794232467138399,10598000000,
-0.05128790594984257,0.00197336331896963,0.00023408253457098225,10603000000,
-0.0042443188846610636,-0.0064291615329342645,-0.00010453728534286902,10608000000,
1.2475732103465573,0.01834688164956688,-2.247238461051356e-05,10613000000,
-0.09417052304301554,-0.000864873969954376,-2.374176329151495e-05,10618000000,
-0.057722525099562313,-0.01825098797681474,0.0005865456345209726,10623000000,
-0.04976414274772406,0.012673636845020514,3.4665441687789195e-05,10628000000,
-0.05157671210082249,0.010215098002254314,0.0003345220816095455,10633000000,
-0.040519877388497695,-0.01087218032754764,-0.0005069081818188761,10638000000,
-0.04825974324973451,0.01117994701838154,-0.000297180883470574,10643000000,
1.9996333329729252,0.011474185254162212,0.00010372919715525533,10648000000,
-0.09138831009384149,-0.00914257396734709,-0.00013630397291289353,10653000000,
-0.04883829561847858,-0.015755675245013624,0.0002130747645935018,10658000000,
-0.06494431486921708,-0.0120099752787203,0.00028191991312853876,10663000000,
-0.04508148556154254,0.024742856182969477,-0.00011954873396349319,10668000000,
-0.04849173106705906,-0.009847337920012331,0.0002708030312880883,10673000000,
-0.07036026622300759,-0.0026615394530775695,-0.0002916893908978177,10679000000,
1.4251009679681772,-0.0202563496838029,-4.5187690374453175e-05,10684000000,
-0.04757666828007981,0.01851681994442531,-0.00020482464103859259,10689000000,
-0.024971231924774098,-0.006233287292748802,4.627201083416521e-05,10694000000,
-0.04715671099362813,-0.0020060969802877656,-0.0003535565484741761,10699000000,
-0.03863327310559984,-0.006431713290399797,-0.00018202424672016627,10708000000,
1.9411753418218813,0.02757614588436188,-7.843916945127296e-05,10713000000,
-0.02790137909755148,-0.023989210610328646,-0.0003332076666761744,10718000000,
-0.08225794559460839,0.00345554016206743,9.199950276440942e-05,10723000000,
-0.07178567531046028,0.0060235952208721405,-0.00018105742939213034,10728000000,
-0.04792473375809454,-0.026757295883416733,-0.00037336914264173466,10733000000,
-0.061770968233651455,-0.016412537610616833,0.00029716409044723715,10738000000,
-0.0587128937276996,-0.009910636440086197,0.0002977582814612141,10743000000,
2.055648919069506,-0.0002716835241874083,-3.809217462176357e-05,10748000000,
-0.09114724738431759,0.00412097242320559,3.731468639197142e-05,10753000000,
-0.038527067563713685,0.04456387275053174,0.0005177287100713162,10758000000,
-0.06329144033534309,-0.005034071462522201,0.00012048550631986209,10763000000,
-0.049333504443239376,0.03255995118570851,-0.0004988140452043473,10768000000,
-0.05298356831331395,-0.010498797153991652,-0.00019936593476181294,10773000000,
-0.024715104819951372,0.0025115769520306914,9.523382787104165e-05,10778000000,
1.9768282990712125,0.030360160018922864,-0.00019368708999610774,10783000000,
-0.10248693752963672,0.024474666238630028,0.00015907778599954782,10788000000,
-0.05710397038232952,-0.00408547742162748,9.387944879809408e-06,10793000000,
-0.06422498599894143,0.027561902858265867,-8.54753229525256e-05,10798000000,
-0.07154436547907812,-0.01842740091793462,0.000218621052240182,10803000000,
-0.04411939857615141,-0.020165795945274206,3.012525474877346e-05,10808000000,
-0.0504259693840927,0.006339107262015639,-0.0002548941786010602,10813000000,
2.016679494309252,0.0003475145553974604,0.00035600539762652134,10818000000,
-0.07792691148961939,-0.002033811227669839,0.0002112589762351988,10823000000,
-0.06805243825494908,0.0011268384110113083,4.616788326464772e-07,10828000000,
-0.06829774182883783,0.030657131868967857,4.998087036044058e-05,10833000000,
-0.024868733959498412,0.009334156876606055,0.00027343458890855514,10838000000,
-0.07277788952868892,-0.00214674919905632,-0.00010064932437349996,10843000000,
3.2668685718376382,0.011146162723274938,0.0001432476940844839,10848000000,
0.7100589555030229,0.0031307401616128506,3.439756662024328e-05,10853000000,
-0.07940212111159942,-0.00568098640248459,-1.3513453425489044e-05,10858000000,
-0.08131287118732182,0.010644345594386678,-1.5081649483674406e-05,10863000000,
-0.04397083602897257,0.0237377529297415,4.1163170600688265e-05,10868000000,
-0.027132749354076894,-0.0008939553677029418,0.0002554012163425398,10873000000,
-0.051920628121508786,0.009305908367934329,-3.066856695160992e-05,10878000000,
1.96158832828747,0.016003757074811158,2.765303809641928e-05,10883000000,
0.0017768341037128089,0.012732968809697034,-0.0003409944346133413,10888000000,
-0.05006113146885031,0.03442646819348991,-0.00018152988357116295,10893000000,
-0.024443619807164696,0.003638639546327905,0.00032243578398684315,10898000000,
-0.03056651041018961,-0.009538604025376901,0.00043180922001480527,10903000000,
-0.07766146895375395,0.00927278104575273,-4.9796926504812956e-05,10908000000,
-0.04857855638074303,0.01769853065271437,-8.638977284960358e-05,10913000000,
2.0081760025126023,-0.030499638290768422,-0.00021303786424510347,10918000000,
-16.492754331543345,0.004374439772815125,-0.03103282288714921,10923000000,
19.13743137294321,-0.058491898901787825,-0.031019126779086092,10928000000,
-2.249340761570922,-0.016131190129844895,-0.028645596875669747,10933000000,
-0.05402875484180906,-0.08321314868193071,-0.02334271132601863,10938000000,
-2.9562745795203718,0.2235610187486797,-0.020639849669559264,10943000000,
2.576957139177025,-0.27656942905105447,-0.01370393522045366,10948000000,
2.47265888069761,0.013367435149451738,-0.008331720192811611,10953000000,
-0.044697496592210645,-0.04060918132886615,-0.0006431913142116393,10958000000,
-1.108579041283633,0.38990858535124756,0.003198466294209356,10963000000,
0.9613074535839343,-0.4196484689992142,0.008714720809989102,10968000000,
-0.04811716563113791,0.01884892674342432,0.013776821563107201,10973000000,
-0.4749117152936886,0.036858651271406306,0.017049414733318783,10978000000,
0.5520681034828681,-0.008856267066277039,0.020053205932011806,10983000000,
1.979753631004618,0.2033109287419296,0.01833175412825423,10988000000,
2.08508190954356,-0.17106707795841886,0.017907911125691744,10993000000,
-0.1783430471943693,0.052633683781188274,0.017675524362291056,10998000000,
-0.4296239757734718,0.04536970910134154,0.015268107945893285,11003000000,
0.28104239652143687,-0.050757452355578714,0.01020659331978201,11008000000,
0.1530254339948011,-0.01999016829057261,0.006975927668823592,11015000000,
2.5343945129629115,-0.008269775143206653,0.003931563102906263,11020000000,
-0.37408355198786564,0.015735496497040192,0.00023384737999323393,11025000000,
0.4073881813893326,-0.04644795459092238,-0.0045528616968164605,11030000000,
-1.4374435368497835,0.06796070994700276,-0.005596584139052636,11035000000,
0.12361304946162628,-0.059656128337536404,-0.007768129035845947,11040000000,
0.07726953783627902,-0.04166543449869216,-0.010740360997705433,11045000000,
-0.04637299215830329,-0.063790356013808,-0.010599089644618172,11051000000,
2.8858686448495567,-0.0790269006426193,-0.0095067557052396,11056000000,
-2.938556411803557,0.2285225887153089,-0.012183583599143687,11061000000,
2.8916924640743584,-0.3911250012563073,-0.010634088991027043,11066000000,
-0.9360212713579945,-0.003790375159655095,-0.012470194613355998,11071000000,
0.7076501048111349,-0.08962204116406304,-0.014592886467843392,11076000000,
-3.6872594332237125,0.3825100975657237,-0.020895321293439684,11081000000,
3.118595517348145,-0.07034519821130708,-0.026160464418580952,11087000000,
2.5021919548182012,0.060051542336416984,-0.03520797407833695,11092000000,
0.44762465789688344,-0.08543737558202412,-0.04135025801826846,11097000000,
2.481707054529995,-1.0370763574249913,-0.040792322553183644,11102000000,
-0.0005042490445219486,-0.07329673356949878,-0.040787356180370445,11107000000,
-0.1909795271840935,-0.050167347562571234,-0.0403242955118462,11112000000,
0.6596737378460421,-0.19186533405303718,-0.038805236250011685,11117000000,
2.031949841323897,-0.09534082417038475,-0.04058303929319295,11122000000,
-0.48383240809526545,-0.031276562658005456,-0.04301479032157362,11127000000,
0.17121393244559263,-0.1160976253294002,-0.04756225839260125,11139000000,
0.9071162406581448,-0.22170090165990447,-0.049194994539324965,11144000000,
0.12145206942655126,-0.1429785571167984,-0.051722906846861386,11149000000,
0.9924229307664595,-0.1000613729407552,-0.05438049114243642,11154000000,
1.5016261679511478,-0.2980194143594253,-0.056075380709979326,11159000000,
0.07801729594109993,-0.16860253063426908,-0.05843693856367148,11164000000,
-0.9052808538550056,-0.042418898330506265,-0.06195358994215815,11169000000,
1.285091773125334,-0.37197295258514806,-0.06468744779100151,11174000000,
0.12698713236373227,-0.2154205869700958,-0.06893639843180936,11179000000,
-1.4235850577186007,0.030154045436642393,-0.0751839103331664,11184000000,
-0.584739497276622,1.8420439391504053,-0.08925813071601074,11189000000,
7.427696644139651,-3.07847660932795,-0.09562009880041161,11194000000,
-1.1339719476820334,0.11009875881397414,-0.10122316746660637,11199000000,
-1.0762403088846018,0.04758459013946731,-0.10712150116607151,11204000000,
1.9805316591558755,-0.6596454392415336,-0.11179529320617597,11209000000,
-0.033354307865102406,-0.2252468849238213,-0.11925949675498165,11214000000,
-0.934127703227979,0.02020145676591242,-0.12521354747078073,11219000000,
3.919244875947173,-0.767001161832732,-0.13142163811134933,11224000000,
-0.026813993844597785,-0.21219365284068217,-0.13828529138978216,11229000000,
-1.0254966361538371,0.034928181066333136,-0.14462947220028363,11234000000,
1.8569863942704723,-0.9089837341546546,-0.14959410386955302,11239000000,
-0.11609140263791826,-0.23769145873262112,-0.15593216699749232,11244000000,
-0.954360561813262,0.06537840034552632,-0.16241701095477282,11249000000,
1.8998595497912316,-1.0542794434282294,-0.1673537279601876,11254000000,
1.9919305998102341,-0.28071145956566423,-0.1754439277323591,11259000000,
-0.8551623735759786,0.10971438953022186,-0.1821159570408764,11264000000,
1.8257325789599148,-1.1740196515804624,-0.18747210825371566,11269000000,
-0.12697822634291933,-0.29583454791901775,-0.19421870167802938,11274000000,
-0.9137302698706462,0.11292741650119931,-0.20088680017976557,11279000000,
1.800504555184792,-1.3512373101594204,-0.20578684110102383,11284000000,
0.336802904491696,-0.5678436132468966,-0.21309006229677002,11289000000,
3.3624231750647406,0.20733761742066073,-0.22239848103700285,11294000000,
0.786430980716211,-0.8865880292752474,-0.23784334371885554,11307000000,
-0.7864424066637675,0.287974617054741,-0.243360133258959,11314000000,
1.9008651128122849,-1.7823358418148239,-0.24828746487263423,11319000000,
0.6978987410800769,-0.8958954075796932,-0.25587268306799416,11324000000,
2.247371714847515,-0.6901848815010955,-0.2641096331384718,11329000000,
-0.08039794363117903,-0.3304135247893008,-0.2703767719398937,11334000000,
0.8997064742075577,-1.2759607844499237,-0.2748775334441911,11339000000,
0.013638691914292707,-0.34464410291716513,-0.2807905089540486,11344000000,
0.6658285151612855,-0.9801955395188982,-0.29160370131924235,11354000000,
1.2601488437123591,-0.370237837556148,-0.29859334058966136,11359000000,
1.325917841416604,-0.8223827054078509,-0.30610958445930914,11364000000,
-0.7760390704965577,0.28158133661457363,-0.31206013792586473,11369000000,
1.9780277738048442,-2.44682363371332,-0.31707508864513395,11374000000,
-0.6929553384160926,0.6127900913354949,-0.32286995599409635,11379000000,
2.7006102308083393,-2.6360716291645625,-0.3288433857575622,11384000000,
0.450735273510826,-0.5589807519507526,-0.3354236134337091,11389000000,
1.2276489374726292,0.07371265670557922,-0.3425644520623699,11394000000,
2.116398217453006,-2.1326469326395703,-0.3483734865384461,11399000000,
0.7440274947678469,-1.4601910023984253,-0.3530237243133794,11404000000,
0.31409107232872463,-0.6351158735397503,-0.36000441806917555,11409000000,
1.1052162247571227,-1.5569515142820436,-0.36511147286763346,11414000000,
0.6874491007868163,-1.223381747248404,-0.37030649845978186,11419000000,
-1.2710186446776255,0.7723506857057822,-0.376598317270232,11424000000,
5.17497611854483,-2.9898894952249884,-0.3831088393105425,11429000000,
-0.24120649907587693,-0.4437837690559013,-0.3907210370488622,11434000000,
0.37548839740669376,-0.9848103443960422,-0.3945588958742784,11439000000,
1.7208696031292936,-2.221490462639867,-0.40020681122659324,11444000000,
1.2856743787405926,-1.9409180379922522,-0.40602233449430936,11449000000,
0.7482724146618112,-1.3111684578542806,-0.41063410703666664,11454000000,
0.1463162060073509,-0.7757816636212468,-0.4185573944879749,11459000000,
6.643395178258469,-2.767422861437307,-0.4308337532564291,11464000000,
-7.286605376909584,5.308589206267406,-0.4359002426932967,11469000000,
-1.0126343860831646,0.030926322434977414,-0.43626417427030517,11474000000,
-1.1605606274931626,0.4180435441221638,-0.438180066464964,11479000000,
-1.970678116139433,-0.8241083466466722,-0.44960692828446275,11484000000,
3.265386122797224,-1.7402050913019118,-0.4529024415574859,11489000000,
-2.6786666410885136,1.2945926067071425,-0.4618569345306929,11494000000,
4.317634929289924,-2.2514185730104765,-0.466046241583903,11499000000,
-1.2621536086131717,0.30600489871349523,-0.47484291652663796,11504000000,
0.7756237502882173,-1.278920899951015,-0.476054435342215,11509000000,
0.349088518149444,-2.091895783450674,-0.48827350058336516,11514000000,
-2.411286696792714,1.2373457924412536,-0.4984370138976318,11519000000,
3.888429730058679,-2.76724263656405,-0.502526220999168,11524000000,
1.0632115358845717,-0.9958228317019138,-0.5134468936124065,11529000000,
-0.9664035500336535,1.714426529502124,-0.5239750686964797,11534000000,
3.6935558126389725,-3.2967239646170836,-0.5282997079070036,11539000000,
-5.6832958892128875,2.5415377369675882,-0.5365393881149987,11544000000,
-2.9963808530828477,2.461192227544831,-0.5375438172414678,11549000000,
-0.469643653752003,-3.4142092251633076,-0.551937349567508,11554000000,
-4.383954185501348,4.4563524852434675,-0.558609793235399,11559000000,
-2.560416402026653,2.104592095615784,-0.5592297108051172,11564000000,
-3.722320050886736,3.0025104492698853,-0.5601175795840159,11569000000,
23.78234275574028,-18.180190500384885,-0.5760864867629554,11574000000,
6.795786334279336,-9.930555173585747,-0.5969295951680302,11579000000,
-0.12958209471215593,0.04242344616838951,-0.6106559693460034,11584000000,
0.5256914261529955,2.174745778532777,-0.613209350174689,11589000000,
-15.088718099069837,9.00932639945133,-0.6193507971632162,11594000000,
-2.6161318672336122,2.0072117592987797,-0.6204490340598672,11599000000,
-3.77558426224604,2.914510596353037,-0.6215337660055484,11604000000,
-12.59362534751086,10.543620403747768,-0.6226520649459433,11609000000,
-25.066505344853425,19.083485582177225,-0.6244136551611464,11614000000,
-3.1125653906443045,2.2895211595534044,-0.625185988696479,11619000000,
-3.6304594425732217,-1.5554211449517366,-0.6243340382164256,11624000000,
-3.6157327664371794,-5.984644155964539,-0.6222634955685845,11629000000,
34.67346001044445,-34.00050082579708,-0.6703645504430841,11634000000,
-4.329051020174909,8.683833637030588,-0.6800513137860933,11639000000,
-2.661179623178671,2.0061711068130212,-0.680555648189084,11644000000,
-3.8344159681757692,2.799434988034481,-0.6822134992362846,11649000000,
-4.955948274047692,3.535302583611923,-0.6835918755068955,11654000000,
-35.804661361924744,4.739528540255678,-0.6729669551356897,11659000000,
-0.6410118424364631,-0.836944103490978,-0.6725585410348726,11664000000,
-1.516023242743612,-2.748702855363119,-0.6716804083819378,11669000000,
-2.1916139401414267,-4.04388129096731,-0.6704418870706734,11674000000,
-2.842709026931678,-5.165855306749987,-0.6678100422208942,11679000000,
-41.27396851877655,1.9603470068401065,-0.6567110207005936,11684000000,
-0.8020412917033735,-1.3234665239815058,-0.6554305831374,11689000000,
-1.756845351627019,-3.2812743181357056,-0.6538717229525083,11694000000,
-2.464234979965773,-4.6029571846665185,-0.6520347646094765,11699000000,
-31.358704376776004,-0.9271722227272816,-0.6406797556327857,11704000000,
-0.6081654024207632,-0.9958449680534649,-0.6400874540274588,11709000000,
-1.7615705552567031,-3.4760190271353295,-0.637538428749315,11719000000,
-2.680592245621658,-5.304946794615906,-0.635952036477748,11724000000,
-23.967249875765535,0.5027518372087789,-0.6255515772994739,11729000000,
-1.1413632117123842,-2.4749138961365817,-0.6248261488585745,11734000000,
-1.8548009235971326,-3.83189112113277,-0.6231817325979755,11739000000,
-2.3885201153137303,-5.041958750067272,-0.6210672680331157,11744000000,
-18.790076798797532,0.4901112194271957,-0.6113206164050123,11749000000,
3.154929564060794,-1.7935514953687557,-0.6108700840480477,11754000000,
4.558855906923146,-2.5713806235751644,-0.6095009660839357,11759000000,
-23.09129196235888,9.940574832185074,-0.6111732419987435,11764000000,
-10.217521878787851,-3.3300775204841653,-0.6135119283947293,11769000000,
1.4945673559163057,-0.881914578442976,-0.6130993510557442,11774000000,
-10.423207991228677,-3.182881403561172,-0.6155709577831696,11779000000,
-8.283099831568133,-3.003588129447467,-0.6177323921694129,11784000000,
-1.3645574065606991,-1.4385115781214437,-0.618041884514871,11789000000,
-5.9058140375595904,-1.9829081025414375,-0.619013290315038,11794000000,
1.4144424130889774,-0.524170714422672,-0.6182266511965406,11799000000,
-0.06909290445748169,-0.05297113294820133,-0.6173710300576144,11804000000,
1.6734690904488512,-0.8153609492246697,-0.6161901094814852,11809000000,
-8.850980079477738,-18.88285640133047,-0.602032948925185,11814000000,
1.9353726982712212,-1.0242208999659248,-0.6017019945104745,11819000000,
3.709386932525306,-1.9372081932696466,-0.6009940095737781,11824000000,
5.157490639556103,-2.67325860701922,-0.599681883485961,11829000000,
-5.62568761458785,3.612040724081751,-0.5994216345947584,11834000000,
2.6791623941597345,-1.3773256346420037,-0.5986991489677644,11839000000,
4.333360540608411,-2.2056018791758487,-0.5980251073166298,11844000000,
-3.148852734634444,2.296630627705609,-0.5972409778308737,11849000000,
1.969856385284501,-1.0168259346179578,-0.5967300270248442,11854000000,
3.5719024158580632,-1.8073530243419067,-0.5963415346113298,11859000000,
-0.7195375292550172,0.8547309356465126,-0.5944471868352782,11864000000,
1.6480352659342206,-0.830690030753539,-0.5941650645202013,11869000000,
3.485621357160607,-1.7099914822250009,-0.5930015717358281,11874000000,
-1.2397271807491206,1.0180462669172765,-0.592590991256598,11879000000,
2.4822796888618375,-1.2016438179843514,-0.5922611846562743,11884000000,
4.241535579599855,-2.0193024011694916,-0.5909946372562461,11889000000,
-2.715957402823828,1.7446708255555845,-0.5906718142956491,11894000000,
2.86258676796672,-1.3873645832813613,-0.590508708125233,11899000000,
-0.2141133610003585,0.47056521023629194,-0.589927991554029,11904000000,
1.7832920260864114,-0.8143457038237695,-0.5896382722104625,11909000000,
3.4666161245154674,-1.6301799200916949,-0.5888203912628608,11914000000,
-0.5060009383719544,0.5776462951954133,-0.5879728346497824,11919000000,
2.1943522943430196,-1.0298958195507515,-0.587435276026312,11924000000,
3.988312052914215,-1.8051225815393466,-0.5861670912778786,11929000000,
-1.9474978517796206,1.161569878376485,-0.585790578177794,11934000000,
3.2521621625622825,-1.4337896228457745,-0.5853713528977661,11939000000,
-0.7749521289991201,0.6296695618401508,-0.584019126429443,11944000000,
2.2660845164541543,-1.0214426296261017,-0.5837362176212691,11949000000,
4.071934911101327,-1.7537701743697691,-0.5833004590434164,11954000000,
-2.1829814896004196,1.2294538674334226,-0.5830978787105284,11959000000,
3.073611553448379,-1.320152833956053,-0.5824083608544185,11964000000,
4.593586944836378,-1.961928437808137,-0.582120923580741,11969000000,
-2.3670522408219354,1.31543008295128,-0.5800930777418072,11974000000,
2.3292220973978472,-1.008857649515271,-0.5794471071273353,11979000000,
4.182991095615122,-1.7341308935906254,-0.5784924525445218,11984000000,
-2.4731634355485745,1.2795968506449775,-0.577712453929622,11989000000,
2.5850588892425224,-1.0493567706920321,-0.5770475223505547,11994000000,
4.181764723330445,-1.685481559725113,-0.5762064714141488,11999000000,
2.863205119070094,0.7880443058530913,-0.57450240487428,12004000000,
2.2876281033946917,1.5663133874511754,-0.5732461393691631,12009000000,
-3.8123798557872504,-1.624819133305018,-0.5704170408806096,12014000000,
3.515237380898527,-1.389705601904196,-0.5697328820957775,12019000000,
-1.172077353933742,0.5826534411809748,-0.5683296601436616,12024000000,
1.8224388541041383,-0.7095005447510753,-0.5678479025294343,12029000000,
3.5585096707985615,-1.3723361115790065,-0.5671766741880131,12034000000,
4.291064777931673,-1.0396577492344965,-0.5657824931211064,12039000000,
1.7955975665269894,2.200295716621403,-0.5639990970257264,12044000000,
-5.019283652936218,-0.673046061035074,-0.5599672301688907,12049000000,
2.2965179807802634,-0.897474715574309,-0.5597019160339628,12054000000,
4.138886516343454,-1.4088215794452192,-0.5580950801383177,12059000000,
4.384256436186317,-0.6651530929902962,-0.5572527262776719,12064000000,
-7.507386485012522,1.559367650303258,-0.5552219111046802,12069000000,
3.1336406251280087,-1.1477079016324758,-0.5552905348707201,12074000000,
4.458940938392407,-1.2319794518620115,-0.554107740056972,12079000000,
-4.415780195588553,1.4021794971056516,-0.5516335849410067,12084000000,
2.5906151525522447,-0.9286361217517,-0.5506604082930595,12089000000,
4.370109889916145,-1.449864057783403,-0.5498277342273661,12094000000,
3.368423011092238,0.5961029524430672,-0.5483569464368939,12099000000,
-1.4645235522931042,-0.41272424384819184,-0.5450634501583178,12109000000,
4.028809915867314,-0.966204757416189,-0.5439470402990533,12114000000,
3.477068734100313,0.5267338114924052,-0.543523475997758,12119000000,
2.8504686387436835,1.6895877386505564,-0.5416823285041966,12124000000,
-9.295735198629686,-2.5976568114770004,-0.5347206158462354,12129000000,
1.373498784171069,-0.5173050730014616,-0.534747153308884,12134000000,
3.5713378823743227,-1.1698894431790632,-0.5340581531857302,12139000000,
3.0366227245307424,0.7829914003454382,-0.53296806832105,12144000000,
3.215558142208237,1.1670465959748153,-0.5315124416642593,12149000000,
1.8847962348049145,3.0619624716922402,-0.5287742705533476,12154000000,
-7.2444877861176735,-5.155801916381837,-0.5215623877223398,12159000000,
2.721738219405851,-0.8394698773060973,-0.521177219366894,12164000000,
4.028702598398288,-0.8662413001144224,-0.5201772190446142,12169000000,
-1.2294483840906958,5.289756465301455,-0.5195445673801048,12174000000,
3.625385813028037,0.5393250799306388,-0.5174617648086166,12179000000,
2.4809069500240972,2.4541970489429157,-0.5156103643660013,12184000000,
3.182182451723513,1.904568341460959,-0.5143124891702673,12189000000,
0.7513708999691696,2.5380488999484707,-0.5124823902432211,12194000000,
-10.529657183669297,-14.405746372896981,-0.5018692988543066,12199000000,
2.06736210720927,-0.6621232081858368,-0.5015100119529174,12204000000,
3.6108137932944584,-0.2758987956285186,-0.501023718890689,12209000000,
2.4742494722386033,2.91822982382007,-0.5010924074320147,12214000000,
2.6600677108315662,3.798603985266745,-0.5010857797291232,12219000000,
1.7230644178490921,4.137191503266383,-0.5008340533007358,12224000000,
3.172042804374556,0.6059655306195262,-0.5004680208033713,12229000000,
2.158579656775768,-0.2997865847713453,-0.5002635599925773,12234000000,
1.7138980969199722,-0.5317751022063703,-0.49902305522461615,12239000000,
-9.881879981598921,-13.017256973781606,-0.4873950734251099,12244000000,
2.4991137068374076,-0.11823576205454957,-0.48753605295954655,12249000000,
2.8513707003762576,1.755551080363799,-0.4887535463749627,12254000000,
1.233303671322897,4.420816244524422,-0.48797651907708844,12259000000,
1.2493485359085075,3.7535817797257978,-0.4867886782574091,12264000000,
3.8870762206873386,1.1191456160575093,-0.48541747186236606,12269000000,
3.380369177915626,0.1408854526773826,-0.4840318857754933,12274000000,
-3.9779174267860746,1.7051659264988532,-0.4828260526952243,12279000000,
3.5749325990380867,-0.9804230328140013,-0.48230743126234393,12284000000,
2.5156961450112667,-0.7142396136169474,-0.48219627427110207,12289000000,
1.977768084889492,-0.41729818319504824,-0.48115436430866626,12294000000,
2.416807201217982,-0.4691835543192888,-0.48067411396055126,12299000000,
-0.17573238910600086,0.35236944537646986,-0.4798860193103807,12304000000,
176.777272944231,-58.76638005127921,-0.5997517194852825,12309000000,
-19.60970681889089,5.903679663872515,-0.6012076550748803,12314000000,
-11.928274016122154,5.14582341487973,-0.6015976958314362,12319000000,
-5.405587360028249,4.229591045161231,-0.6029983973139359,12324000000,
-30.879530615709704,8.297912001305471,-0.6038143248093447,12329000000,
-10.266504855646312,2.379576863426448,-0.604311892143379,12334000000,
-9.604481377621013,2.4760176043852646,-0.6043533039365989,12339000000,
-12.111058622140172,2.784347741233351,-0.6045589478752245,12344000000,
-16.197515181909697,3.4516335671516436,-0.6052224066067425,12349000000,
-2.502660813988929,1.2515463113722487,-0.6057311363225379,12354000000,
-22.75605818629666,5.519573328508197,-0.606571595297592,12359000000,
-11.446133967947407,2.3274485423602442,-0.6062879974038664,12364000000,
-9.03292069521774,2.2757400726798527,-0.6062448344831021,12369000000,
-1.7919972533845616,2.8347945716050797,-0.6054938005537264,12374000000,
-2.467937258893467,4.9612994753207165,-0.6061678493770615,12379000000,
-0.42009699033790043,2.421400633276214,-0.6080239150542674,12384000000,
0.1538139480274124,3.773839557580657,-0.6102699149541304,12389000000,
1.0555843858569103,3.5253324909399897,-0.6133856012615129,12394000000,
2.6869178154703266,-2.7925367044064147,-0.6152839929217407,12399000000,
4.064789512501582,-4.136228074908963,-0.6154417626265654,12404000000,
2.2017912088831273,-2.9342625514199576,-0.6156814797132291,12409000000,
1.416827547418676,-1.5310829166076956,-0.6154379597556479,12414000000,
166.5557563036776,-61.504205378610536,-0.7415406844548811,12419000000,
89.07761949396402,-5.344238384304684,-0.8116767539261011,12424000000,
-8.421187306639775,1.032204819628357,-0.8120160801987149,12429000000,
-25.071340677145702,3.4902665928256016,-0.8119107328631568,12434000000,
-2.463428928574893,0.2567682672015704,-0.8120726438120579,12439000000,
-3.9240271326620193,0.4889090413243384,-0.8121488597567358,12444000000,
-33.526346298601176,4.124663766960834,-0.8139735505000221,12449000000,
-3.3783460607672313,0.43986725316355807,-0.814636695712856,12454000000,
-2.7938577753544207,0.32483280496689093,-0.8150068724729395,12459000000,
-4.40135403156127,0.4614235342068346,-0.814868312277691,12464000000,
-38.46752531834685,4.122165386963375,-0.8160908799270002,12469000000,
-1.7080079207544958,0.1758067852559263,-0.815463112836171,12474000000,
-3.4475510502638858,0.36264515503754624,-0.81522936171753,12479000000,
-38.58171143417281,3.5697825276097164,-0.8168302321529017,12484000000,
0.056933240043180795,1.0191598908762498,-0.8172230787761192,12489000000,
-16.520384269520576,1.9594006849780767,-0.8185896968021673,12494000000,
-3.1896269004524482,2.0446684190126905,-0.8197047317474331,12499000000,
-10.372244321256419,2.5368096834911977,-0.8217975690007538,12504000000,
-23.930598012154523,2.1654777620892283,-0.8237424337937909,12509000000,
-3.9145341847567456,3.2334057664327247,-0.823876399148455,12514000000,
-2.0452470660764503,4.193142605090045,-0.8240578157461346,12519000000,
-6.712756600516495,7.972993954887781,-0.8241370481039633,12524000000,
-1.9262880904742303,4.414045304266605,-0.8250447514785455,12529000000,
-2.3889288259894728,3.786299327622043,-0.8272547071349869,12534000000,
-0.6716007143714865,3.869086834610697,-0.8290343122473427,12540000000,
1.8980149412004075,2.6551120801540304,-0.8318622052602869,12545000000,
139.762564948198,-46.794873145331714,-0.9350950657844503,12550000000,
33.43540569130707,-0.44985741270740554,-0.9809037635194252,12555000000,
-2.134821702875857,-1.7020490583373864,-0.9891111927999282,12560000000,
-0.9870926481845452,1.441456923668458,-0.9896847489069641,12565000000,
-15.600000541803901,-0.22694994069081448,-0.9908046954327406,12570000000,
-11.095841972623408,0.09273458981642016,-0.990740567349184,12575000000,
-17.489305792760923,1.5020145938158582,-0.9922881122868429,12580000000,
-17.457995169587704,1.014083205685405,-0.9942253208429163,12585000000,
-16.75641097297766,0.8657823844595091,-0.9965074260639448,12590000000,
-9.584886069616328,0.7375452638071288,-0.9975265043211698,12595000000,
-7.613277310960517,0.8879430747603893,-0.9988504490097091,12600000000,
-21.43131810476899,-0.0851499711769046,-1.001093054589953,12605000000,
-9.28700377621516,0.5221133232234642,-1.0022914839996888,12610000000,
-10.574437100235727,0.4807854556181453,-1.0043113423930836,12615000000,
-7.397096460913498,5.249871381281259,-1.0048403447167142,12620000000,
-4.225585662250352,5.318283047472352,-1.0048148979690408,12625000000,
-6.3768060195295995,6.542260050188266,-1.0051192081495435,12630000000,
-1.8614590615910918,3.6122187974694495,-1.0064910054946437,12635000000,
-2.726070725398658,3.4509951214840004,-1.0084393986450904,12640000000,
0.7699519444899571,2.7734294471851295,-1.0100913402671294,12645000000,
3.776485935044059,-1.904246831712259,-1.0114282272151962,12650000000,
176.65248635531557,-17.713606811472676,-1.1617032380333132,12655000000,
94.67667933421473,5.503097898764984,-1.227306182716619,12660000000,
69.20067602906208,0.975011379184036,-1.2963831253031026,12665000000,
5.097533969383797,-1.95908973215113,-1.3147348587442877,12670000000,
10.503031291695205,-2.3971699058308062,-1.3191330378018413,12675000000,
0.2712943451343705,-2.781050887113834,-1.3307197682250618,12680000000,
-1.5889121758304203,-2.8742210673594797,-1.3362855237671265,12685000000,
5.433430103978281,-2.7513063648118092,-1.346029461287497,12690000000,
-13.471657917042121,-4.551720713402941,-1.360766034192306,12695000000,
21.661088821844334,-0.8591841915446691,-1.3723272448316093,12700000000,
0.31891499280905133,-2.5054428297132816,-1.3813268668397547,12705000000,
-0.06944255045698997,-2.883145939646766,-1.388238531881533,12710000000,
1.3086864312143724,-2.973830226354686,-1.3962010996754834,12715000000,
-2.4448537613422543,-3.2692187213382584,-1.4066700989542031,12720000000,
-1.541736657559721,-3.714461086148895,-1.4172116375409154,12725000000,
-23.165286595433994,-3.602678330988662,-1.4196612806258115,12730000000,
-2.570836318357867,-0.524628219436442,-1.4189158668544435,12735000000,
-4.1774324705165515,-0.8275559774272725,-1.4182811337469248,12740000000,
-5.459735921622341,-1.1541953430590357,-1.4174553126333709,12745000000,
1.3984751090921659,-12.180970231004352,-1.447344913965164,12750000000,
-4.628938554981578,-4.339858746004606,-1.457472986933327,12755000000,
-2.3907977002212033,-0.5867680484278377,-1.4576795998345207,12760000000,
-3.931477124841824,-0.9651740591977062,-1.4575241202760953,12765000000,
-5.2919965210113045,-1.3655133690814698,-1.4571303150303125,12770000000,
-10.037733968612523,-10.27056689636264,-1.4811937132894395,12775000000,
10.842667831925016,-5.789449063334689,-1.4990197967126848,12780000000,
-2.3375862443167947,-0.6043703919106308,-1.4981086816329052,12785000000,
-3.8680917979738747,-1.1022754203425256,-1.4972336362291456,12790000000,
-5.155760811102641,-1.5205123160730671,-1.4962808262164968,12795000000,
30.42457648724281,0.9180202584154159,-1.5143788898206938,12800000000,
-8.03989163724663,-8.538476686741493,-1.5462284893024152,12806000000,
-3.1665762789855316,-1.013373197822311,-1.5463549997877317,12812000000,
-25.47302129717334,-7.94420024187713,-1.551004915188989,12817000000,
-1.958147490026803,-0.6666367887962995,-1.5503305096378466,12822000000,
-3.5236735820674028,-1.2901223948127043,-1.5492315178508107,12828000000,
-4.869579159064908,-1.819169570740984,-1.5477237616978452,12833000000,
-6.0981313766576655,-2.347025572505752,-1.546249865951093,12838000000,
72.0759494076479,4.577643462131242,-1.6146148660882174,12843000000,
33.169183572493466,1.1322832681143689,-1.6549268749410915,12849000000,
-15.682186081791107,-10.532579986204347,-1.6673321586711645,12854000000,
5.288313074471319,-0.6569242145871215,-1.6710844247727659,12859000000,
-3.554491394748155,-1.5370011536822927,-1.6711031588073904,12864000000,
-4.872742132842769,-2.178497728565659,-1.6697452485382998,12869000000,
-14.229800461662443,-5.648060776865064,-1.670322349194168,12874000000,
-11.073986267190799,-5.215980597730787,-1.6696119073889208,12879000000,
-28.585743058787564,-16.384085398784826,-1.6793155558204882,12884000000,
16.440942848293243,0.44180686255007806,-1.6858223271265944,12889000000,
-3.6998969170749016,-1.8751554124794592,-1.685154304652215,12894000000,
-26.387579809437455,-12.191830132014497,-1.6893527224935123,12899000000,
-3.2433777254642044,-1.692591064431648,-1.6896943295065088,12904000000,
-4.496871344892479,-2.4269715120675315,-1.6890108526228418,12909000000,
-5.566013733694954,-3.025724356897123,-1.6882184381880354,12914000000,
-6.483508679557482,-3.557000221413923,-1.6866548749056558,12919000000,
-38.3976693515352,-21.296856685186924,-1.6942033148536877,12924000000,
-1.4142244082408852,3.2803018943781246,-1.694621913820147,12930000000,
-2.1403871649121005,4.749641485243858,-1.696326259637139,12935000000,
-2.7779564774757266,5.881586197957087,-1.6989241286386731,12941000000,
-32.956900882201424,-14.313361990388687,-1.7087527988608369,12946000000,
-1.2965648930001012,2.68313209252424,-1.710136357988292,12951000000,
-2.030706669684482,4.059525195016036,-1.7123053786071356,12956000000,
-2.691696530089136,5.189465295799215,-1.714370876599444,12961000000,
-3.2662502770323534,6.225692335620441,-1.7170913771895975,12966000000,
-29.000502895956163,-7.983016021249283,-1.7229340843916034,12971000000,
-1.8277885919521162,3.1976218242759353,-1.7238388839822238,12981000000,
-2.8088935411956633,4.972067588895294,-1.726307746701468,12986000000,
-22.653356389340964,-12.87668628111058,-1.699110196262255,12995000000,
-1.4043507398683637,2.210199173961984,-1.7008929128231058,13000000000,
-2.228976268954474,3.5898468197576303,-1.7022887818066674,13005000000,
-2.916654086852549,4.57817932357078,-1.7040190971416578,13013000000,
-23.18116540722881,-11.644042135926524,-1.6774990903360043,13018000000,
-0.8140600302729741,0.8417761224348277,-1.6765891283397145,13023000000,
-1.702234494215195,2.449094761891157,-1.6771811612769123,13028000000,
-2.568791295907415,3.7006799970562057,-1.678562081977483,13033000000,
-3.2927664949750377,4.754843444754034,-1.6796958619931885,13038000000,
-3.9604178568456008,5.638707412518669,-1.6823922817354693,13043000000,
-17.98116253092786,-17.162080274648822,-1.6580342193781163,13051000000,
3.4954492650071955,2.4917811834418924,-1.65960519855198,13057000000,
4.737720251069831,3.41416550788147,-1.6600108836764693,13062000000,
5.780894900893147,4.352035473034125,-1.6617959935498103,13067000000,
-8.761316657799329,-13.18311137656979,-1.6500716036983807,13072000000,
2.1027735955267595,1.6141146956709487,-1.6498484935353033,13077000000,
3.915888036311313,3.0627754611424436,-1.6519001637100301,13085000000,
5.300907049229129,4.321251346722519,-1.6535858059346678,13090000000,
-4.491183985919164,-6.077533270624404,-1.643106087283165,13099000000,
2.8871626424813934,2.4793704253234274,-1.6444633035683507,13104000000,
4.158729353113923,3.5714876591011517,-1.64572663088548,13109000000,
5.147485380222225,4.485747577360122,-1.6473764068494066,13114000000,
5.639704727032865,5.117850921183898,-1.6475468557048318,13120000000,
-3.857497103024322,-5.872951825295386,-1.6350240502847793,13125000000,
3.310779360534006,3.0765183293879854,-1.6359931967031218,13130000000,
4.400095560770399,4.16171747285188,-1.6381765401844552,13135000000,
5.3195654285900105,5.038383406317168,-1.640272610903329,13140000000,
-3.8925392838093487,-6.3789666548541275,-1.629760199464102,13149000000,
3.329035625817317,3.356915477380877,-1.6304395593484013,13154000000,
4.252067742318517,4.291220126110886,-1.6320239773575327,13159000000,
5.0467032961246066,5.177732147440627,-1.6332346240214581,13164000000,
-11.429756825297757,-18.69193457346541,-1.620563228855787,13169000000,
1.8520411968882138,1.9925745469876737,-1.6207207616727661,13174000000,
3.006280644374023,3.198023903957587,-1.62150308065361,13179000000,
4.0167840603646905,4.328107032192386,-1.6245370517543671,13184000000,
-5.788597352173512,-12.090072071510976,-1.6139601574245104,13189000000,
0.7301184287843565,0.7953494978452467,-1.6143983319595836,13196000000,
2.1441214881232327,2.538595655854756,-1.6158885385280866,13202000000,
3.4437378082711074,4.077254552787972,-1.6177180739930146,13207000000,
4.282613451191959,5.260852811410825,-1.6188880750967916,13214000000,
-2.616710266982629,-6.390701050159963,-1.6061513119191089,13219000000,
2.222080345360918,2.7829879579744152,-1.6068572746613456,13224000000,
3.2637175084304357,4.075340548553965,-1.6087042166650949,13229000000,
4.043085377620596,5.227714102289169,-1.6118778225740948,13234000000,
-5.896106504748544,-14.055234719551573,-1.6005093481787553,13239000000,
0.9196175900328745,1.2289475390162101,-1.60094234934927,13244000000,
2.206388365348081,2.9983272448216134,-1.6017652089787167,13249000000,
3.0733904214564918,4.174083856411968,-1.6025358462346118,13254000000,
3.9997516348487916,5.703026952640425,-1.6052020573011012,13261000000,
-9.389394595235698,-22.931325333127702,-1.5913632348925706,13266000000,
1.182310724735555,1.7255386263435195,-1.5921641792113639,13271000000,
2.1728287313137264,3.2476461758282524,-1.5934376231434397,13276000000,
3.0210156980708622,4.609012485336797,-1.5957549652195973,13281000000,
3.712020767394065,5.732839285735997,-1.5984952167914384,13286000000,
4.2696384036242225,6.706116046496585,-1.6016156000400723,13291000000,
-8.942116571711617,-22.31721833281426,-1.5857884989661735,13296000000,
1.6888446174365486,2.73200651762914,-1.5857255841376414,13301000000,
2.5099423037884354,4.2015236253970265,-1.5873429821544702,13306000000,
3.183366602027613,5.414698604625708,-1.5888507397650917,13311000000,
3.7300137502179953,6.525624617124902,-1.5913559814578844,13316000000,
216.77618226559116,27.13963565314712,-1.7159650766965084,13321000000,
-49.83934786059074,0.04466566838654606,-1.7038690928905986,13326000000,
-2.3120891086933284,1.0024259954564334,-1.7048845564741697,13331000000,
-3.7572981494047935,1.6454249031996018,-1.7056024863934591,13336000000,
-36.32397444620561,15.51579435868716,-1.6910680667418094,13341000000,
-1.524929200200024,0.6569125071488173,-1.6906186913693864,13346000000,
-3.1292781376767964,1.2961207789568077,-1.6905703381269288,13351000000,
-4.524814356619505,1.8048801568496067,-1.690454591893887,13356000000,
-5.678431125240578,2.265584802788129,-1.6912026653978165,13361000000,
-30.546295949960307,-7.204962074964651,-1.6854886008854884,13366000000,
-2.2592272247184417,0.8574448771312219,-1.6863606300393335,13371000000,
-3.7663654392951567,1.3402367023892903,-1.687565271768622,13376000000,
-5.09097543996068,1.7724139443237232,-1.688378459739472,13381000000,
91.97669197663932,-10.289822628073196,-1.7516938308776995,13386000000,
32.54294731672409,0.3729395211344087,-1.7687737311474283,13391000000,
-11.343298384826591,1.6517547513144202,-1.764570365028098,13397000000,
-4.399688942847672,1.3332109348427892,-1.764500091653649,13402000000,
-31.91850316051398,9.883714107531334,-1.7531614076430595,13407000000,
-2.4188670425543894,0.7171253462443913,-1.753558072071416,13412000000,
-3.9573903582893624,1.065486767520202,-1.7545903496204236,13417000000,
-5.280689850506207,1.4194319794679102,-1.7552803497853275,13422000000,
42.182667183096356,10.974140836604825,-1.7893446983709484,13427000000,
-2.2189381758324966,0.5596702187110476,-1.7890506992120443,13432000000,
-3.8496679261912714,0.8894737489686338,-1.7889193126586818,13437000000,
-27.710943033715907,-4.593192067401263,-1.7827172373725657,13442000000,
-1.9048629163427393,0.413989738722507,-1.782354069906576,13447000000,
-3.5947609833034573,0.7843687690889132,-1.78253887311827,13452000000,
80.45165457756895,10.824365812875621,-1.825996405156421,13457000000,
35.2248757326483,-4.6474958205587305,-1.8597400008252205,13462000000,
-41.63991269080483,1.9737994626092665,-1.853053027103447,13467000000,
-2.043639676122208,0.3098768730897525,-1.8535984934023058,13472000000,
-4.496578578021275,0.6732148448773289,-1.8531686049131573,13480000000,
35.269353709870444,11.744695074634135,-1.8811169551035885,13485000000,
-21.397736205153205,1.6432660720466918,-1.8750185656862781,13490000000,
-1.9314332638700058,0.25182287271031395,-1.8750952152048515,13495000000,
-3.6546698313962933,0.36402181746921347,-1.8756072641022024,13500000000,
-10.628580847875815,0.3752166710515853,-1.8745717238060673,13505000000,
130.7912661356509,20.67229389814387,-1.9582853652849492,13510000000,
72.76802136196297,-35.202708911603196,-1.9926590251938048,13516000000,
-15.433554160546988,6.321399298244505,-1.9870769173440395,13521000000,
-10.575882128100913,0.05378778098398316,-1.9843055194426045,13526000000,
-13.298227174664575,0.6505227910751039,-1.9811951941963708,13531000000,
-11.602737982229433,0.4117664341907363,-1.9785408754221123,13536000000,
26.875401491443785,-7.427198562427996,-1.9975453223889745,13541000000,
9.46032645576628,-17.2428201985802,-2.0121744082052064,13546000000,
-2.0679994599707734,0.005482991220358644,-2.0125040914174868,13551000000,
-3.7874629650275344,-0.03515334760587562,-2.013739067994264,13556000000,
-34.88957133861972,-0.6390919872555832,-2.005165188012253,13561000000,
3.608953781500772,1.8360223310151302,-2.0072766070136954,13566000000,
-3.5835601497776515,-0.1460264452024305,-2.0060128306208433,13571000000,
-27.93222732824778,-1.7026307284538948,-1.9990925618496105,13576000000,
-2.9717209327339034,-0.13687543830299184,-1.9985200082476016,13581000000,
-4.470354050419105,-0.3382833458496431,-1.998594656144594,13586000000,
-30.15547336550359,-0.6292746045624618,-1.9940615293069572,13591000000,
-2.246847089091263,-0.18986768603643822,-1.9944030239137676,13596000000,
-27.751849649898645,-3.12766080307538,-1.9887287612264106,13601000000,
-1.911859050685546,-0.22145737296401108,-1.9880635244556475,13606000000,
-3.5336156859317893,-0.4670930894229227,-1.9868372899429116,13611000000,
-5.046828456324734,-0.6734065973081697,-1.986022132614082,13616000000,
30.89154567846353,-5.867380530269829,-2.01803768871373,13621000000,
2.5291187690468564,1.681979578451662,-2.0201541021682554,13626000000,
-3.240736441436563,-0.5320046470875301,-2.0205631822061823,13631000000,
-34.564714101666645,-6.266252926582569,-2.0135305364921607,13636000000,
-1.689125229412307,-0.288520285498855,-2.014200395139353,13641000000,
-3.2745724202219146,-0.6691573832651222,-2.0141178918400144,13646000000,
-4.76068999649759,-0.9846278348070848,-2.0130370559155453,13651000000,
25.545671064932133,-13.348004220993689,-2.0484014761591727,13657000000,
27.161336881822177,16.09242548890302,-2.0624793439809097,13663000000,
-11.844678548687035,-4.572462903095675,-2.059921611547011,13669000000,
-26.939673791537512,-7.2999487563029195,-2.053826310044879,13676000000,
-2.077766113160004,-0.6130304874761594,-2.0547846212383205,13683000000,
-4.032283738637731,-1.1658444315760605,-2.0542769986719804,13688000000,
-5.2089617357725135,-1.5809743480203056,-2.053091681367696,13693000000,
91.31305674929631,-6.380198240976169,-2.10070456364208,13698000000,
-52.26644997347151,-10.0464213195374,-2.0909376246978164,13703000000,
-3.004678207007865,-1.0667184991946936,-2.0897866056055787,13708000000,
-4.557592093568849,-1.6305744969409908,-2.0897463142189956,13713000000,
-34.71960767702558,-13.201952283965685,-2.08468546937807,13718000000,
-2.558984414949166,-0.9608040275603105,-2.0848819960168465,13723000000,
-4.064796230443811,-1.6596302242356589,-2.084845311496431,13729000000,
-5.576598059219534,-2.251108438309562,-2.082732044742425,13736000000,
76.42006641406694,-24.494334942605462,-2.1425004900595104,13741000000,
27.21900096241667,23.460128223884187,-2.154745027932252,13746000000,
-12.172161504390328,-7.812635182557146,-2.15304432482134,13751000000,
-4.484279063107154,-2.115788386496686,-2.1528151168983367,13756000000,
-28.081612705349134,-13.558739379153582,-2.1483301976522475,13763000000,
4.578412583938776,5.000496565716858,-2.150791294759982,13770000000,
-3.388261177051136,-1.7590210574260594,-2.1496162753790506,13775000000,
-5.273747095027473,-2.7813618893614187,-2.1472412358079542,13781000000,
-1.4903002682752973,-18.511218798624522,-2.163906468687589,13786000000,
2.0347045968619986,2.9448404449270624,-2.1649149879133565,13791000000,
-3.3470941045982654,-1.9568669789292907,-2.1641181113283503,13796000000,
-4.730013410449612,-2.780618974675539,-2.1634356322131474,13802000000,
-5.822826143441098,-3.577374592246808,-2.163006063346356,13807000000,
6.9021195152934585,-12.695544889657699,-2.1849111617710277,13815000000,
-3.145179613659711,-2.039737743405692,-2.1821267989850046,13822000000,
-5.057834794717615,-3.448766407413837,-2.179472537141689,13829000000,
46.48149564537822,6.228406814873454,-2.203136041382043,13834000000,
5.360331953255013,-10.22244600639051,-2.227637978308017,13839000000,
-2.6723315485204537,-2.005483682248097,-2.2271580023828585,13844000000,
-3.8646388161852214,-2.931217029120812,-2.2266603332534474,13849000000,
-22.34649332588781,-18.281809304081687,-2.225556870251666,13856000000,
-1.9142525528633267,-1.6866929060119589,-2.2254071053194444,13862000000,
-3.188909130984288,-2.5762143648774933,-2.2225387593370796,13869000000,
-4.87969817756049,-4.13374194103984,-2.2179851467472353,13874000000,
-5.797164344977407,-5.028582040319207,-2.216524265811672,13879000000,
100.24860528267446,12.52649013807624,-2.2985840329316893,13885000000,
-48.42173424683903,5.554646547199764,-2.295587924199673,13890000000,
-8.218720052493373,-5.686293703387853,-2.2936236371233667,13897000000,
-3.6138189884605727,-3.515683698505364,-2.291626190926781,13902000000,
-4.462313538685652,-4.374144959768585,-2.2885336781830214,13907000000,
-5.176047228755421,-5.198398424024666,-2.2860999654601435,13912000000,
-32.71267016174562,-0.9649848327892145,-2.2754077942639293,13917000000,
-2.009461221712492,-1.9818993623466208,-2.2745906265296307,13922000000,
-2.9927523805776026,-3.21337229493683,-2.2735621888254935,13927000000,
-3.8947191596398176,-4.304370051162173,-2.272695992438717,13932000000,
-4.691611973760361,-5.294777120185652,-2.270863767372475,13938000000,
-5.3062955637721805,-6.178355321229776,-2.2673829067727307,13943000000,
52.40529789815395,-6.8019244500390466,-2.293545687782741,13948000000,
-5.5619895725835855,24.195720518978703,-2.2938054377906063,13953000000,
-2.1280688942818013,-2.727485352918912,-2.2923297838008914,13959000000,
-3.1343449511053016,-4.045901972831754,-2.290538455814824,13965000000,
-3.999250554965035,-5.295688931776535,-2.288533580089099,13971000000,
-4.68094567781118,-6.470666609841739,-2.2857990353435453,13978000000,
-13.936156025525756,-0.6551414040711404,-2.2782826912199465,13983000000,
-33.55860335809406,16.51572307304366,-2.2611132274666343,13988000000,
-1.3876370898442691,-2.0599904743265522,-2.2592947088653847,13993000000,
-2.3118723509093364,-3.4936709054045485,-2.257115502446558,13998000000,
-3.046218273307568,-4.725509474212711,-2.2553732496113468,14003000000,
-3.6119727580945775,-5.795491886900741,-2.2536976641334454,14008000000,
-3.893004556267516,-6.412442318785579,-2.2527840583960628,14013000000,
-4.280949932990972,-7.248043937994602,-2.249102818155363,14018000000,
-4.666438648439709,-8.087418233289535,-2.2474029819738774,14023000000,
45.426491728144306,-19.376191970021686,-2.2773064963771485,14028000000,
264.76819134659297,27.071272224997845,-2.412694223436334,14033000000,
-78.8330906364604,17.40390279652909,-2.3800257535982428,14038000000,
-2.485112612622949,1.6950482669269866,-2.379794273716105,14043000000,
-3.8944696096657108,2.3976263483319666,-2.381803840072114,14048000000,
-5.088952068112921,2.984991188234332,-2.383746031295639,14053000000,
-6.003523368689705,3.4530693495539606,-2.38569503964334,14058000000,
-42.047004474016795,25.794305682588618,-2.3642820806361198,14063000000,
-2.534315218515459,1.3397826139175668,-2.3646204410849143,14068000000,
-3.933768105237584,2.0201750692445857,-2.3645531481771225,14073000000,
-4.932210987670093,2.5413702247088334,-2.364454822991614,14078000000,
-6.106887693199217,2.9197607690008613,-2.365555197387188,14083000000,
-6.323917246761364,1.3575613407838358,-2.3663793519925376,14088000000,
-3.4409082795169046,-7.497366201171522,-2.3646031118681945,14093000000,
-3.228270889143576,-9.173229234920154,-2.3611614036450224,14098000000,
-3.377555019523017,-9.834215370987009,-2.358049447700757,14103000000,
-24.42275170000309,-1.3627966619406164,-2.3347522833238608,14113000000,
-1.3916054295710085,-4.766949361112565,-2.3309942553354257,14118000000,
-1.8207909566191702,-6.301997906340506,-2.3280804011287772,14123000000,
-2.0368489588480876,-7.395881900914775,-2.325153634740693,14128000000,
-2.187969983364142,-8.278630872052192,-2.3233815189264786,14133000000,
-2.36507021417032,-9.155408742581177,-2.3197280194284584,14138000000,
-2.3003613804360583,-9.755574771026756,-2.3158715914769443,14143000000,
-2.528403776424559,-10.030172384270035,-2.311252448804618,14148000000,
-6.850717211866935,-2.785278309093764,-2.309078147187143,14153000000,
-34.64081266401606,-33.05736660922239,-2.2793149977900207,14158000000,
-2.3170203589148914,0.6660664285293324,-2.2786754608686173,14163000000,
-3.8680349150654108,1.0269741986384406,-2.279929215986394,14168000000,
-5.197385668018292,1.2609766053879057,-2.2809480874565473,14173000000,
-6.265434410175913,1.451827402897241,-2.2824038586264614,14178000000,
-7.46631888841043,1.589004291373503,-2.282997869303338,14185000000,
-8.426604178914069,1.6566031250478777,-2.283230088423247,14190000000,
-9.072564026936863,1.714233915481596,-2.2829984071093823,14195000000,
-9.647570242639532,1.6842704899982588,-2.282502943626652,14200000000,
-9.015489829808555,0.0008278641215872856,-2.282791231428849,14207000000,
3.7238943844499652,-4.044938307571735,-2.282036935233732,14212000000,
61.41597308532633,-6.209728687839737,-2.3038684945490386,14217000000,
-3.2308635306822966,0.404393943445577,-2.3038507427583506,14223000000,
-4.853157405347134,0.5032409218056768,-2.3034649375219494,14228000000,
-5.723160133790878,0.8221187265668158,-2.302906141130818,14233000000,
-3.5660728019721333,3.6910426263675746,-2.303506896929435,14239000000,
-2.016888132055823,5.932883914317616,-2.3058223413790078,14244000000,
-2.1756119886203904,6.58134315711644,-2.309859642216433,14250000000,
-1.3949695610839885,3.986469515419858,-2.31289315583297,14256000000,
3.3644457417963,-2.9191973921345706,-2.3114603823969793,14261000000,
4.913370021413882,-5.495803182896714,-2.3081671593526365,14266000000,
364.16688890011915,34.9886514729165,-2.449679852064455,14271000000,
123.63788802114914,3.378231254989346,-2.4965538534017657,14276000000,
116.22089809588736,-1.3110947154367016,-2.562217757075629,14281000000,
-2.3848832951814765,-0.894519214652023,-2.5647310731697393,14286000000,
-7.938573173383382,-0.48486479268450927,-2.564940377116694,14291000000,
-8.735942093806289,-0.5917029694978745,-2.565332142769341,14296000000,
-9.343542994982716,-0.8192626914520222,-2.5653298024288587,14301000000,
36.27653467510984,-22.841512053414334,-2.5870775954468255,14306000000,
10.592921116422152,-9.67569778898209,-2.593100987105316,14311000000,
-7.909398479449419,-3.62139002083817,-2.591765266974118,14316000000,
-8.18918226168353,-1.090201396550809,-2.5908082567034953,14321000000,
-8.842583926106514,-1.3892922766564078,-2.59020065851295,14326000000,
12.772484591983334,-12.961214026677546,-2.6022024487754334,14331000000,
18.93557991497622,-12.173963664445234,-2.6138289258225185,14336000000,
-6.727104863032898,-3.9975306631652443,-2.6129117437662996,14341000000,
-8.004696736472825,-1.6830450807323591,-2.611531713133925,14346000000,
-8.641082480217852,-1.9667052494719803,-2.609979250739932,14351000000,
17.128026593297413,-14.175793807702586,-2.619739390372321,14356000000,
15.660098345953669,-10.496090722642197,-2.629168175016483,14361000000,
-8.502408925032555,-3.3883234612791218,-2.6283381943801074,14366000000,
-7.929676034102623,-2.294242121800608,-2.628268215909888,14371000000,
3.259914007405342,-8.534947946824648,-2.6359555907335874,14378000000,
16.050019033233593,-10.602489026304264,-2.6442204627413863,14383000000,
-4.851628347438437,-4.502085316057897,-2.6429730099339355,14388000000,
-7.5345050836931415,-2.6477060755475548,-2.641335449567504,14393000000,
0.026206816246901854,-7.0776288967176,-2.643355409717506,14398000000,
17.594813742253393,-11.600149210171661,-2.6537133175315724,14403000000,
-3.855046392992559,-6.308024231931763,-2.654127598500514,14408000000,
-5.196551087954854,-4.038073744890474,-2.65442108460766,14413000000,
-7.443139192153978,-3.2254306789874136,-2.6533736665105625,14418000000,
19.930176963815487,-12.600174972069068,-2.6646772914779664,14423000000,
-1.514670356633819,-5.995470768122163,-2.663238392308991,14433000000,
-6.755458874537575,-3.4731912441991075,-2.66292025152558,14438000000,
2.913654403745577,-7.89450830833854,-2.668780720784304,14443000000,
9.916026790421421,-7.6104750630951585,-2.6746178509757965,14448000000,
-2.471527367401377,-6.302813603709467,-2.6756153244894993,14453000000,
-3.0346021896206343,-4.796606986522897,-2.6754734143290793,14458000000,
3.369776749652638,-8.03136658154077,-2.6780149000522595,14463000000,
2.4919331634973654,-7.228054022160037,-2.680040200048196,14468000000,
1.123453713510603,-6.725426630004224,-2.6815163593882803,14473000000,
11.600734457092845,-7.292548208346968,-2.6837783252277307,14478000000,
-1.399646946929514,-6.633002725574415,-2.684424751379585,14483000000,
2.126200677369493,-6.779833686976257,-2.688229356397186,14488000000,
1.2238011191890052,-6.709445759259899,-2.6902678363455497,14493000000,
1.029609766900856,-6.821344921252463,-2.6910457908810828,14498000000,
0.9496290043705418,-6.77528074077093,-2.6918045144666527,14503000000,
0.951400857047164,-6.805940643723605,-2.692661383609044,14508000000,
5.0997857315871435,-7.0272833571931415,-2.6947966764352476,14513000000,
1.0604693110778196,-6.822449542116458,-2.6952795668941367,14518000000,
-1.7526827536728098,-6.66577394004603,-2.6957064864427394,14523000000,
0.6691502897868278,-6.878864994709142,-2.698080953494031,14528000000,
0.9438809684308216,-6.809556368122127,-2.6991225695575114,14533000000,
12.099987344295553,-7.281543583916661,-2.7014650912036258,14538000000,
-2.311738044185113,-6.785622700038142,-2.6978934002185677,14543000000,
-1.9224427441510816,-6.797062409870599,-2.696843074872214,14548000000,
3.539052198752707,-7.018481259315057,-2.6987337069421495,14553000000,
5.980542483711191,-6.95509955157423,-2.701373405205641,14558000000,
-1.8570976442831564,-6.874958707365352,-2.699843996062196,14563000000,
-3.0183449738879844,-6.821967211009648,-2.699226977449522,14568000000,
6.358011768811222,-5.293777687991319,-2.701039332605166,14573000000,
2.4830684519549755,-7.434897752570225,-2.699973708580949,14578000000,
0.857311805154088,-8.037030332727747,-2.6975342342924553,14583000000,
-2.808198606105704,-6.962092909250887,-2.694864274684658,14588000000,
6.778267366984636,-7.273781612286565,-2.6975500719628918,14593000000,
3.3576914393136694,-6.233852085217633,-2.6982726183566124,14598000000,
0.9112379532352032,-7.8106756195742895,-2.6977042342555415,14603000000,
0.7234451600597307,-7.403406176003226,-2.696216813870886,14608000000,
0.843958873150472,-7.191162281454398,-2.6941824906330627,14613000000,
1.5707375598871416,-7.041117739421658,-2.690058212673212,14623000000,
1.25013378881277,-5.375455056962795,-2.68853793391384,14628000000,
0.9235381644910412,-7.556744398532634,-2.688382567904663,14633000000,
1.1612605966908007,-8.901976530192469,-2.689835313381554,14638000000,
1.543529508879863,-7.347186857069642,-2.6936094334768237,14643000000,
2.5367838948435164,-6.485825451816924,-2.697490192794593,14653000000,
2.2125791429138744,-7.226725410377738,-2.699366872727393,14659000000,
0.12961152244108431,-7.449056512017888,-2.700375942040989,14664000000,
0.7105878102114778,-7.296734382291488,-2.7027496191272373,14669000000,
2.816128890532863,-6.5886989345729905,-2.706279362652734,14674000000,
2.72609111643315,-6.7109620828835075,-2.7092653061531453,14679000000,
1.2139418027238327,-7.1766518026520965,-2.7111466403277698,14685000000,
2.032111367522571,-7.337395891898393,-2.7122392521780303,14690000000,
1.705380980407405,-7.275798772348947,-2.713071527778782,14695000000,
1.1051191593963203,-8.598159713927817,-2.714764439364836,14700000000,
1.012891848420546,-14.723103222124191,-2.7175048912177675,14705000000,
0.03327649255995275,-9.949295800806118,-2.719569374237225,14710000000,
0.9692778299790127,-7.895477900783426,-2.721793272752131,14715000000,
1.0231092555808925,-7.3804688446509585,-2.7232000074675526,14720000000,
2.70561768903984,-7.391291499928603,-2.724725228813274,14725000000,
0.8023073486224822,-7.321355250115656,-2.7259416183322016,14736000000,
0.5091599310176156,-7.3236428674442875,-2.7272938679058516,14741000000,
0.48265424132212253,-7.277846668713731,-2.729188364112405,14746000000,
0.4606857615160933,-7.259346381782387,-2.7314885055181053,14751000000,
0.44459988458386773,-7.292401643267555,-2.732561614550238,14757000000,
3.5786804104556103,-7.298157785606104,-2.735214958460317,14764000000,
0.31540397954104354,-7.424903827778684,-2.7353763982675545,14773000000,
0.480464585965418,-7.415273813075368,-2.7373083249966013,14779000000,
0.4993725044162619,-7.445352562262905,-2.7392489613979527,14785000000,
0.7119404646985247,-7.218545019927214,-2.7409616004228665,14791000000,
4.42415272152201,-6.386097013236592,-2.743630723371537,14796000000,
-99.2435334039688,9.085066602765677,-2.670270815643296,14803000000,
-358.27994394752375,-10.024316469212872,-2.5016291908232398,14809000000,
0.4730960003551278,-1.4090716433554282,-2.500687313563905,14814000000,
-0.6982303372777321,0.09754610621953848,-2.5009341026589533,14821000000,
-1.2769748329295163,-0.028802895884988557,-2.500539085354007,14826000000,
3.771945043023486,-4.847162853600558,-2.498066995720021,14831000000,
61.97160685963986,-13.97684838308638,-2.5566757970689773,14839000000,
49.99000189571022,14.193232438233398,-2.575898822220931,14844000000,
-27.61440995251344,0.2139301949674852,-2.560709545043042,14849000000,
-26.863052483432543,-0.6786834913171476,-2.546242502296972,14856000000,
-19.79785460339406,-0.5623149943830607,-2.5372004325704873,14861000000,
-14.195360459412935,-0.7233947474796413,-2.5308172090030325,14866000000,
-10.105532571957642,-0.6682936018298258,-2.5253424791478096,14871000000,
-7.078056550256841,-0.5938706843624277,-2.5206833899550403,14876000000,
-4.884906300755312,-0.5070577257757721,-2.5178760317539166,14881000000,
-3.258013448279681,-0.4486900562555715,-2.516361338722536,14886000000,
-2.2187843225046997,-0.2945907165324509,-2.5159683005105045,14891000000,
-1.3649687549311167,-0.1688591549519911,-2.515750189944411,14896000000,
-0.8264779157852178,-0.14423272093449563,-2.515600369426436,14901000000,
-0.5468212021914377,-0.11256638517498933,-2.515213679176264,14906000000,
-0.29078433476805476,-0.028417252916291998,-2.513451621768782,14912000000,
-0.09367362826882347,-0.020464836433668372,-2.512814149880991,14917000000,
-0.08735093085183288,-0.008219308820698223,-2.5123165976488013,14922000000,
-0.09041810676108683,-0.013285595634538063,-2.513244023517407,14927000000,
-0.05866126905305919,0.006042217118993141,-2.5137770523047114,14932000000,
-0.07085549383209126,-0.0056253305364658245,-2.513787118000203,14937000000,
-0.04836163378806353,0.0036000496627559084,-2.513420303616027,14942000000,
163.02013696610695,-0.3580374469228888,-2.5958566094630346,14947000000,
122.30506439269132,-2.4370644426604704,-2.6594063863571815,14952000000,
16.589658757132366,-8.95956713459126,-2.6696006328661412,14957000000,
-101.2790526915686,29.83523088406498,-2.6046850486465596,14962000000,
-123.7307105027059,0.07129995297300241,-2.5595941710868613,14967000000,
-69.47797503756188,2.412165670724461,-2.527357108123431,14972000000,
-15.499952770108502,-5.73060986491764,-2.521098336468008,14977000000,
-8.916826574860382,-3.546090989091604,-2.5176285089795205,14982000000,
-5.540234191868284,-2.2742516988893393,-2.5154322146523764,14987000000,
-20.47399395915639,-7.846061948072814,-2.505498799014383,14993000000,
-64.32456982125952,-28.143837150093507,-2.477713905276973,14998000000,
-9.780382950498499,-4.543579864791557,-2.4702143824867817,15007000000,
0.00972849820302087,-0.013195752785968913,-2.4702976283634754,15012000000,
-0.0457666646479878,0.002349991640095233,-2.4699229940142184,15017000000,
-0.03372279226373068,-0.027541990035261456,-2.470365420573356,15022000000,
-0.057100473391203346,-0.025224827884756728,-2.470183224350379,15028000000,
-0.0868023732632672,-0.014309410146597869,-2.470000061003376,15034000000,
-0.07011534951886962,0.003384811105303677,-2.4699788589556824,15040000000,
-0.08449477165116308,-0.004062120655256065,-2.469415620450587,15048000000,
-0.057328418230220786,-0.010816108042066992,-2.4696948189404733,15053000000,
-0.05025280213735031,-0.015993829510407523,-2.4696229199875157,15060000000,
-0.10517201042395827,-0.04797377593327609,-2.4693443448077375,15065000000,
-0.033024349046306856,-0.022460584151192044,-2.4692442746417127,15073000000,
-0.04939267700887301,-0.04079446795026068,-2.4687292025276957,15078000000,
-0.07655220212265003,-0.02958068660707651,-2.4686995129012796,15083000000,
-0.059043179198323845,-0.04931146848140182,-2.4684904345373297,15093000000,
-0.08939051786352196,-0.02371761555327175,-2.468891169444715,15098000000,
-0.05131363607287745,-0.017432782991815485,-2.46896272065189,15103000000,
-0.08045109933125398,-0.005054104319445387,-2.4682945905855176,15109000000,
-0.06662181779326376,-0.0061849631505607825,-2.468705267934795,15114000000,
-0.0707428320432064,-0.032801978279014744,-2.4679760444799124,15119000000,
-0.06146105539404555,-0.03110862684215862,-2.4676933186114747,15124000000,
-0.07885104876609608,0.021111302177771643,-2.4682108140739345,15129000000,
-0.06751934870227487,-0.022065610834407882,-2.4680072314972454,15134000000,
-0.08700803682934463,-0.025534492460685194,-2.4678783179886,15139000000,
-0.08283299790235206,-0.021854906100083688,-2.4676347984432283,15144000000,
-0.0639839412470141,0.020112742892128006,-2.4669750774917545,15151000000,
-0.05472194656941179,-0.028276751216183126,-2.467013413840154,15156000000,
-0.0470294247935176,-0.01981488722060726,-2.4667688924183597,15161000000,
-0.04657031285061586,-0.040952877567437124,-2.4666587018175443,15167000000,
-0.058011279132500204,-0.04844349514632895,-2.4665511897677472,15172000000,
-0.0655927145075387,-0.014261050536179268,-2.466525955943876,15177000000,
-0.06970797876139413,-0.006681333532534459,-2.4659989453810147,15182000000,
-0.07902749130923917,0.0003377724363391628,-2.4656641826751304,15187000000,
-0.07983061258184612,-0.020373374993405885,-2.4655937592646784,15192000000,
-0.0699237980353417,0.0045083470778036865,-2.4659230488563146,15197000000,
-0.055964855121134034,-0.03802935558153238,-2.465432438308674,15204000000,
-0.07680668500146128,-0.032541301306961756,-2.4658224019508252,15209000000,
-0.05824239986809232,-0.02170555215996962,-2.4652102093972648,15214000000,
-0.06072037323756342,-0.018655493328075763,-2.4645673196200164,15219000000,
-0.07835832173885508,-0.01197987139637945,-2.4647624851693424,15224000000,
-0.07257705739545793,-0.016850052910572795,-2.4643564993231215,15229000000,
-0.08674239917727826,-0.01975435043536762,-2.4645609515605362,15234000000,
-0.08196615130271825,-0.02468338482959683,-2.464135125998061,15239000000,
-0.0667033070150409,-0.008449981180789814,-2.464100890342359,15244000000,
-0.06192102679267533,-0.04680979874881587,-2.4638884390028317,15249000000,
-0.07470447723808085,0.018817124649572393,-2.4634442569331547,15254000000,
-0.10849221014330357,-0.021545708752202172,-2.4631150116899034,15259000000,
-0.10219776470136156,0.010186367489394138,-2.463497186701345,15264000000,
-0.07337145537412915,-0.018441264620904063,-2.462780825508649,15269000000,
-0.10285569697011758,-0.03770669126574888,-2.46288028486302,15274000000,
-0.05547245224247957,-0.023979509694007795,-2.4628013898429195,15279000000,
-0.0853278707415002,-0.005891372148402699,-2.4625789233210162,15285000000,
-0.07680055777869692,-0.0277904211944888,-2.461984621721858,15290000000,
-0.08323293041689209,0.01702603549076207,-2.4619064421425993,15295000000,
-0.0632826733654937,-0.020512458773029676,-2.461566598522313,15300000000,
-0.06988117600554336,-0.010025126332030919,-2.461606970289103,15305000000,
-0.08905026873917295,-0.00879991637821623,-2.461538197958466,15310000000,
-0.10341012179831603,-0.0056061832240615755,-2.461348115215772,15315000000,
-0.06581376610029373,-0.01743113268289889,-2.460959228623608,15320000000,
-0.08203017093727999,-0.025166487155064532,-2.460480358581262,15331000000,
