acc_x, acc_y, angular_z, stamp, 
-0.060704131506390556,0.0018916222753095424,-8.514906288037482e-06,21409000000,
-0.06128766138072565,0.02262973209362949,-6.482016202370963e-05,21414000000,
-0.022109919421053816,-0.012545140026530623,-7.707335097188607e-05,21419000000,
6.927521419640747,-0.0016213687828490237,0.00022477599946136466,21424000000,
-0.2636921762608041,-0.014382287437440307,0.0005348048377643206,21429000000,
-0.10973548309891887,0.01790899755041693,-4.750583803270977e-05,21434000000,
-0.02112752565421991,0.004431996103961662,0.00026553566300770387,21439000000,
-0.07249834652120649,-0.004612148271799836,-2.1473011126726848e-05,21444000000,
-0.031290670930737056,-0.00689782181054678,4.582170435797773e-06,21449000000,
-0.03322084287622036,0.009307367980882832,-0.0002944310107683488,21454000000,
6.963344269439793,0.0018794328256151048,0.00036778171315762797,21459000000,
-0.20668269279543391,0.004572463356496702,-1.3079244394566455e-05,21464000000,
-0.10879958185518707,0.002638138336848495,-0.00018553126085974001,21469000000,
-0.09630435086954175,-0.03074540403141016,-0.00018105289052488356,21474000000,
-0.055124101496737424,0.008034495321883557,1.641510034631015e-05,21479000000,
-0.07352007430353694,-0.01576121691783717,-9.854931938158853e-05,21484000000,
-0.05314801440926635,0.014799323267409493,-6.994733395443098e-06,21489000000,
6.886772394672817,-0.003259029252144236,-0.00010647867820685325,21494000000,
-0.12017138937386064,-0.010194454850750639,-0.00029665704894908597,21501000000,
-0.09221586299703255,0.009041616491357582,7.383941476219064e-05,21506000000,
-0.06423732230233142,0.004511690982087725,-8.439020308868284e-05,21511000000,
-0.06900926675819143,-0.002084849655208077,-0.00013938132363691718,21517000000,
-0.06971410367711957,-0.01230908061506917,-0.00010474941118453165,21523000000,
6.912518582098949,-0.0023386138626784866,-2.5702326119664502e-05,21528000000,
-0.14675955509871622,0.0008550753200981038,-0.00015259440025693546,21533000000,
-0.09336701590809157,0.01665484026879746,-2.0467681005337976e-05,21538000000,
-0.05788714199766021,0.00553185632777996,-6.668953400242165e-05,21543000000,
-0.05688895996417198,-0.0343313108608025,0.00021767873680686645,21548000000,
-0.05789898638044026,0.005827329464996326,-0.00016171414748825187,21553000000,
-0.04821693531921332,0.011696610018566473,-9.070998860856708e-05,21559000000,
11.600085741742935,0.015620600545133215,-0.0003294826551894489,21566000000,
-0.14591312360436948,0.0074733006245172335,0.00014261905236615275,21571000000,
-0.07348477691352759,0.025379881991982645,-0.0004195789652088553,21576000000,
-0.051944651981936645,-0.00460882057713826,-0.00030164304886804246,21581000000,
-0.04869316911506165,-0.002332191545664178,0.00017066075250891938,21586000000,
-0.06794650535722108,-0.017300357164424966,-3.863128294462505e-05,21591000000,
6.91333569536337,-0.01712444387727181,0.0002580040144487458,21596000000,
-0.13716439933487626,0.006867094635927937,-4.174598953994151e-05,21601000000,
-0.0847825962415537,-0.007532981898179291,1.9273339116042064e-05,21608000000,
-0.054436638862799196,-0.010440642427006664,8.726452913505623e-05,21613000000,
-0.041414748038513464,0.004348594227352189,0.0001786810258130506,21618000000,
-0.043249743872097006,0.05901620478728532,5.58281778363851e-05,21623000000,
6.91768111401901,-0.025334408901538864,6.344104961873542e-06,21628000000,
-0.14176440688926198,0.023073812151387738,2.8900780748842494e-05,21633000000,
-0.1396942441581649,-0.005766964686899454,-0.0003582521945655745,21638000000,
-0.06767015691703249,0.018704188570710725,-0.00011636833742828409,21643000000,
-0.030663286592342694,-0.026926449505988628,0.00010048354377469216,21648000000,
-0.029700156233466942,-0.004490733437303143,-5.255662412888045e-05,21653000000,
-0.006802956134002263,-0.0032026181438172116,0.0001944763089788611,21658000000,
6.9243328562721915,-0.027173509097146158,1.9299863411068274e-05,21663000000,
-0.1448508272891887,0.00812626315413158,-3.3690120552467244e-05,21668000000,
-0.08456260278577905,0.03163008292783762,-8.576015046738065e-05,21673000000,
-0.052644959372765164,0.012706049714885963,0.00019657308175740138,21678000000,
-0.0331203913066524,-0.008949687483388554,9.235612436159486e-05,21683000000,
-0.021799418922947178,0.0017462373841353328,0.00011224470879044946,21688000000,
-0.046058681559459025,0.00388475320218507,-0.00014174375110511192,21693000000,
6.955112910280383,0.004120410793458864,-0.0001018294394178107,21698000000,
-0.13273700617487924,-0.003157355440760721,-9.798682740960522e-05,21703000000,
-0.0726972645301848,-0.015455843653477167,4.204066877820469e-05,21708000000,
-0.03314522845735399,0.015289273200794106,4.573757770581559e-05,21713000000,
-0.04752389420210927,0.019138391696623944,-0.00014860596967680557,21718000000,
-0.012224874567857136,-0.02208411719660755,-0.00022092383607260596,21723000000,
5.654620367035435,0.005357826272552927,8.462004466005049e-05,21728000000,
1.245651214542571,-0.012585917108773518,-0.0002119517941661037,21733000000,
-0.10537436315485783,0.02964125182951306,-5.32514882485604e-05,21738000000,
-0.043818224194812024,0.0018318842360063629,5.8590080790207925e-05,21743000000,
-0.0370754739981502,-0.0037246829781030283,0.00019126182850785436,21748000000,
-0.01131752244459917,-0.0007857999558593891,-7.648122266876899e-06,21753000000,
-0.002229640250319336,-0.025532154154630553,-9.362156562262505e-05,21758000000,
2.4616624742062183,-0.0310931778030289,0.0001628213551023094,21768000000,
-0.10376945701932251,0.03213846951990766,5.050374471651981e-06,21773000000,
-0.027313842201576823,-0.018167247881371085,-2.1020919010049855e-07,21778000000,
-0.01715151737672273,0.0066675605816087224,-0.00018891896369593988,21783000000,
-0.031075587367083005,-0.006464835725947231,2.2577043006880677e-05,21788000000,
-0.0188006068044892,-0.03667641082853621,0.00010656581003681994,21793000000,
6.98496838628378,-0.012104851768269833,5.347609875656228e-05,21798000000,
-0.11765878146304376,0.027064144939530046,0.00016217540742661374,21803000000,
-0.04104579967281664,0.014464449632224614,0.0001481766592034667,21808000000,
-0.03685354810888912,0.0162560499365831,0.00013059452665917866,21813000000,
-0.03329676328716366,-0.005357756963342778,-0.00035837147561436594,21818000000,
0.01838255230813287,0.01905683749209614,-0.00010913526485323872,21823000000,
-0.019924340219518222,0.03265194451230212,0.00018005232604905388,21828000000,
8.685644523166149,0.01795865629302477,4.348410892366313e-05,21833000000,
-0.12839862869783253,0.0180388361288255,-0.00011267696206133492,21838000000,
-0.06603834718998833,-0.005521314589285777,7.600653675380287e-05,21843000000,
-0.033262846768733964,0.013708905807312554,-0.00021896149662576682,21848000000,
0.014017435604439517,0.004476860767702467,7.119444247414345e-05,21853000000,
-0.010362863849133656,0.02105918853843823,3.821513270656785e-05,21858000000,
-0.014609394888042,0.02675317347379279,-0.0003628188043930138,21863000000,
6.967009905536526,0.018082231001599607,0.00016827604806145464,21868000000,
-0.1286998264273261,0.02884842236302161,4.245456784892482e-05,21873000000,
-0.055528987954295755,0.006182308743395587,-0.00027659439403829365,21878000000,
-0.01027902639929405,-0.022394399449050733,0.00013768621432188168,21883000000,
-0.007998645573258665,-0.02068378172154448,-0.00010162942516996747,21888000000,
-0.002714784831874536,-0.004880823806420461,0.00019647884183129433,21893000000,
5.6782165004198975,0.0068801443016884845,-0.00045705902699968407,21898000000,
1.2896474588442366,0.03652967378015806,-0.00025064535791897513,21903000000,
-0.08081885686882288,0.006656703861790066,0.00016232839979375598,21908000000,
-0.023779569930842855,-0.004557898198669327,0.00034375840757981663,21913000000,
0.02939778288271891,-0.014224736558011819,7.442164485499614e-05,21918000000,
0.005417047638365657,-0.01995351070722247,-0.00020690262617978624,21923000000,
-0.014158334431208482,0.020112998310101257,-5.5160303857036545e-05,21928000000,
6.821843505770557,0.016936529344197766,-6.575896874427824e-06,21933000000,
0.17971396600578296,0.001360650232401355,4.4574797274908735e-05,21938000000,
-0.058958970338913556,0.003632221795833087,0.00024285258856105764,21943000000,
-0.006300603556434204,-0.006979855298622941,-7.62973786292904e-05,21948000000,
0.014710992149083729,-0.004261720624969328,0.00021987578655111075,21953000000,
0.013752421065453485,0.018922013985477115,-0.0001823247151665222,21958000000,
0.03445845818954839,-0.011214460467722061,-0.00029627150308709946,21963000000,
8.495120248519473,0.006945696201077607,8.125908719027758e-05,21968000000,
0.08040263782676972,0.0031138018117207148,-0.000250589190591389,21973000000,
-0.03824478496060052,0.010622435832111777,-0.00029788034034206506,21978000000,
0.009874862590292955,-0.0020073327426506056,0.0001281309741804205,21983000000,
0.0391742281286515,-0.006549460424824283,2.2754288185198357e-05,21988000000,
0.016584487769198422,0.00989086369134437,-0.00042583665862059493,21993000000,
0.0346645053232396,0.005332775387620447,0.00011054867351744441,22000000000,
3.8494750285031847,0.00971037146652853,-9.138964547144226e-05,22006000000,
-0.06582331254423877,-0.024677300467460278,9.086918884353993e-05,22012000000,
-0.0024649775038969573,-0.007273242680146702,0.00012925914144174948,22017000000,
0.03732912763370657,-6.895295689053431e-05,0.00011256044818488129,22022000000,
0.043944791113496084,-0.006685460224894055,-0.0004236830747724341,22027000000,
0.057887092381567175,-0.015056099554572449,-8.573727490792968e-06,22032000000,
7.046081178140133,-0.0014309127090319424,0.00013841694877471516,22037000000,
-0.08298806499800876,-0.001495299137380967,-7.25698616874432e-05,22042000000,
0.024106079932748076,-0.013267417219402798,-0.00014097361248387424,22047000000,
0.0031524003666584186,0.003323403309030565,-0.0003188312870653055,22052000000,
0.03774099630500921,0.018737746482680284,-0.00012514373682013304,22057000000,
0.033561706802166205,0.00942363461851311,-0.0001780635787517525,22062000000,
0.06448430673508446,-0.00461024133205281,0.00014094713797538163,22067000000,
6.999753999551936,-0.024188013202947528,-0.00016656886873960263,22072000000,
-0.07096067719192223,0.004827610031846941,-0.00017014393930972507,22077000000,
0.02988482503482659,0.007116993397972044,8.230706734156315e-05,22082000000,
0.0351347127089595,-0.04752707205232762,0.00012777480416042818,22087000000,
0.07047462075645146,0.012035453287497914,-0.0002840228158457572,22092000000,
0.042232137503147485,-0.015349022589763589,-7.431104428753634e-05,22097000000,
5.7153189208243225,0.036777023188636036,-6.7881334567571506e-06,22102000000,
1.3377734794456027,-0.0024587864610804526,6.933338375444002e-05,22107000000,
-0.02154192323334527,-0.04437808268573681,0.00010336688314633029,22112000000,
0.07243103484230692,0.02060564489577933,-5.40128277926e-05,22117000000,
0.05543351241785155,0.016521676698638636,0.00020207494941606438,22122000000,
0.06766827785151996,-0.015389921956259899,-8.424750862089984e-05,22127000000,
0.08377571453172172,-0.0014809081684431609,0.0001997842854887693,22132000000,
6.8576450627288965,0.004675074908406041,0.00016806198149645516,22137000000,
0.19597880244460375,0.0023182400842567123,0.00014260923796563323,22142000000,
0.03042771755256445,-0.004310227870295829,0.00021615424314280215,22147000000,
0.08341496340208206,0.031484865728752275,0.00010561693666134029,22152000000,
0.06527251875733245,-0.02352963981481292,3.836313961754631e-05,22157000000,
0.0933081988899957,-0.004499076761015622,6.5014451783021395e-06,22162000000,
0.08876039715638781,0.009304528686888027,-0.000151160062290049,22167000000,
7.071324053786445,0.012098051665395558,-0.0001334847484876439,22172000000,
0.007899259651265773,0.010223834393763854,0.00012482398021224965,22177000000,
0.04026577688259239,-0.009414212366707364,0.00013681083805156127,22182000000,
0.11171205355218383,0.0023679122930786254,0.00015747516855688087,22187000000,
0.11964591524458479,0.027927559998135235,0.00010162692138595625,22192000000,
0.1026676895485817,0.018721584634840253,0.00019959947945298205,22197000000,
0.10198593708553048,0.01617872322298295,4.2711428405462375e-05,22202000000,
7.065426180851142,0.004679397244465118,0.0002445797376028943,22207000000,
0.018489587703200378,-0.007570983814801209,0.0001799219186952525,22212000000,
0.028411794449400223,0.007469727144642446,7.137998938750977e-05,22217000000,
0.09853234063554078,0.017005936023738465,0.0004920047388055716,22222000000,
0.1393705036756075,0.023817823632075748,3.17789043198717e-05,22227000000,
0.11555767170313615,-0.011933988638074756,-0.00044356788314265635,22232000000,
0.11289900033249359,0.024058331428364575,-0.00019161879632946646,22237000000,
7.06472375944321,-0.030190275026453085,0.00020419333927566347,22242000000,
-0.001986824200785501,0.01119021739256315,-0.00011739915562032964,22247000000,
0.1049635103982274,-0.0005759391295918217,7.67509471374502e-05,22252000000,
0.10394406016048874,-0.002801948789759115,0.00023909706954480334,22257000000,
0.13286300782407148,0.0076726507902698474,5.106937304797069e-05,22262000000,
0.14441248062309534,0.0033428647862012066,0.0003741710308350411,22267000000,
5.7983274995470895,0.014907188159556752,-0.0003125332958781323,22272000000,
1.37185997238343,0.023108483429563207,3.684605916796513e-05,22277000000,
0.05883156151039115,0.009631249954940295,0.00020280488708504296,22282000000,
0.11731908458330528,0.0029939663743596867,0.0002900505147323757,22287000000,
0.13697586460074185,0.011452787294586562,-0.0001684709984190966,22292000000,
0.14137042269759692,0.005793773554411464,0.0001937721463408054,22297000000,
0.152552720498173,0.00010473045287392514,4.779284549209747e-05,22302000000,
6.93628787370587,-0.0022714592781891683,0.00014206672762330375,22307000000,
0.25636860065235556,0.0173318009257754,-0.00014487692837378892,22312000000,
0.10076463871004596,0.012436524849329096,3.8741911811720685e-05,22317000000,
0.12605052121352767,0.027921221930219335,4.275176078994714e-05,22322000000,
0.16099584784102403,0.007299931422854689,8.868034953128811e-05,22327000000,
0.16467485386761102,0.0035554460092964055,8.195193391693045e-05,22332000000,
0.16772251418171266,-0.015143092061161148,0.00018759608095331873,22337000000,
3.8419057160609067,-0.0019529766674153577,0.00947537411915433,22342000000,
0.11342504962648364,0.05147394587329526,0.033827503470744764,22347000000,
0.10511090358712495,0.07693562335338434,0.0665409422325177,22352000000,
0.11778806435476727,0.11256164243988516,0.10512779566878704,22357000000,
0.11844842173707533,0.03520203569929334,0.14658102372765588,22362000000,
0.13823050633413259,0.012206041353503581,0.18816913892596168,22367000000,
0.16452848019152505,0.07813164897595924,0.22739190758635144,22372000000,
3.528642563432814,0.10318166355375118,0.2758455113840606,22377000000,
0.065456421075958,0.15710141648947276,0.3322707680782165,22382000000,
0.1328721693485143,0.1797080777722026,0.3890421142667906,22387000000,
0.16408789082614927,0.2479627974118523,0.4436436782921426,22392000000,
0.160232129257792,0.26988082173879197,0.49166943552864606,22397000000,
0.1726702118188498,0.344086530839636,0.5305103648735442,22402000000,
0.20996857368885458,0.3908981972571739,0.5589635765236249,22407000000,
3.6545407874489015,0.41573530732926506,0.59506342617084,22412000000,
0.12403655598584304,0.45238520507296387,0.6306123645972164,22417000000,
0.18106102994233586,0.48493878468140966,0.6624184600025489,22422000000,
0.2092563267821728,0.5763672630702965,0.6903497335050536,22427000000,
0.22965633488378623,0.5713354393135236,0.7116621723671265,22432000000,
0.1878175375002525,0.6378491355145559,0.725461846852153,22437000000,
3.0351886507444923,0.6788168563122651,0.7354488486971545,22442000000,
0.8290997821564666,0.7267430052839681,0.7568962373134444,22447000000,
0.13880774185322364,0.7771906274112467,0.7813089134633487,22452000000,
0.18781073090728678,0.8331279246372945,0.8078888345507145,22457000000,
0.23282068146578871,0.8681609355506674,0.8339504955118293,22462000000,
0.232818716329629,0.9478087283633477,0.8584764645010611,22467000000,
0.20785641256099535,0.9341343725779317,0.8797441508163042,22472000000,
2.834431381916554,1.0075376456731004,0.90100965396073,22477000000,
0.23930521304410188,1.104795992880994,0.9319128362951052,22482000000,
0.20458461007355938,1.1801240522054495,0.964137102455028,22487000000,
0.22950405504018218,1.1856788356350574,0.9968436012593641,22492000000,
0.2500741805162219,1.2313134365392644,1.0267386011490638,22497000000,
0.22604825829756456,1.358882988501535,1.0537466655832108,22502000000,
0.21698009633840745,1.0319629812917825,1.0749706770123417,22507000000,
0.21475472138482,1.4286371411926926,1.0911593395402364,22512000000,
0.28561212117487494,1.4487817882058314,1.0997911403641116,22517000000,
0.24894770804388405,1.4565535195592108,1.1012037395866296,22522000000,
0.259242940790311,1.4993624155170355,1.0964850556873647,22527000000,
0.295380509485053,1.541260385062645,1.0850298426417169,22532000000,
0.2814169616122107,1.5719127660634247,1.0698563860499155,22537000000,
0.27724262335185706,1.2843194781446658,1.051021769610054,22542000000,
0.22609309294378704,1.1681625086959404,1.0301797682844058,22547000000,
0.19649903346390146,0.9854118593719217,1.0088658190710098,22552000000,
0.24805126814383366,1.012206227895,0.9888543789619139,22557000000,
0.24558748840932618,1.0165787654090626,0.9706027636925393,22562000000,
0.2528971663778311,0.9773714234370443,0.9556946857452278,22568000000,
0.2407864490494985,0.9984629749900066,0.9427105571968759,22573000000,
0.2453247192404318,0.9559288689212229,0.936624559483844,22578000000,
0.24759730817074552,0.9758263635759546,0.93548862234435,22583000000,
0.2495101692246737,0.9699178387820012,0.9379281411356852,22588000000,
0.22973232154429857,0.9526449899379071,0.9438807357543564,22593000000,
0.22525966716457826,0.9841792891159692,0.9531726666635608,22598000000,
0.25877808618559783,1.0561743880375956,0.9640373780510069,22603000000,
0.2287276886911517,0.9403380885231492,0.9761431593254265,22608000000,
0.2656071669557588,1.0220854957355712,0.9889729566155596,22613000000,
0.28367715121062886,1.052611042051491,1.001321994965931,22618000000,
0.2171331527445755,1.015993314086709,1.0144613807347254,22624000000,
0.23714350234930917,1.0889646408788265,1.0210745038082782,22629000000,
0.25878173116557734,1.0485092748881828,1.0288660570154067,22634000000,
0.28935909135843724,1.0896699345909084,1.032418911189028,22639000000,
0.24634620395704881,1.0187553563772234,1.033993265661587,22644000000,
0.21207560867644878,1.0385880041277034,1.0326664919164088,22649000000,
0.25079807365454987,1.0755188102088755,1.030304887118678,22654000000,
0.27407145963589025,1.0783735430623937,1.0242734415523658,22659000000,
0.2344684255472936,1.0118950912234563,1.019805334438545,22664000000,
0.6140423573571138,1.3656752955799871,1.0161447642164738,22669000000,
0.3851379622529255,1.225462419033964,1.0149795354713962,22674000000,
0.23790119354074976,1.1225507281413827,1.015703692428088,22679000000,
0.20426789644206297,1.034863556345006,1.0170377004806064,22684000000,
0.20757409445717184,1.0838586780593753,1.020929261431415,22689000000,
0.22298578125418894,1.0366779328421785,1.0240775303541472,22694000000,
0.21539814354950648,1.04903698783426,1.0304492799937504,22699000000,
0.10050063566758817,0.3687643358714479,1.0361451488715188,22704000000,
0.30845034812223404,0.7251778666990972,1.0420240186890435,22709000000,
0.2974211072785824,1.0962486441565231,1.0497249047938246,22714000000,
0.2781945597210213,1.1273155436527886,1.0633352551534774,22724000000,
0.2441713035738837,1.125731142672366,1.0731554702386228,22729000000,
0.251470141862183,1.1381698699118936,1.0794022223363695,22734000000,
0.24764905308651233,1.0911010731025752,1.0856087225225188,22739000000,
0.21461827351087287,1.1274476124949784,1.0910573864140432,22744000000,
0.24594817494610968,1.1376618057401042,1.0970365703269733,22749000000,
0.23234633065441473,1.1046904486550737,1.1004282144879052,22754000000,
0.23109524512432206,1.1360550586308846,1.1047561248674032,22759000000,
0.22530358592558505,1.1244626939888982,1.1080168649172102,22764000000,
0.22392494794114282,1.1348927820527903,1.1135681003265974,22769000000,
0.22089479461981854,1.1237694112925756,1.1160576467011702,22774000000,
0.24337028609248093,1.1722385193701905,1.1197755828762639,22779000000,
0.23491384548103184,1.19437881629253,1.1231013297982138,22784000000,
0.2246929813680143,1.1376338016994907,1.1263439740616785,22789000000,
0.25868168419366333,1.1682519965759504,1.1288320416690536,22794000000,
0.24858361326905756,1.128461579159009,1.1315117360291478,22799000000,
0.24331579582631918,1.14981202916315,1.1331178364266856,22804000000,
0.26933519287075036,1.162552110733763,1.135471126498815,22809000000,
0.2588736755756965,1.1795885561952768,1.1376821693368155,22814000000,
0.253865806477253,1.1808269057351595,1.1400607551299025,22819000000,
0.2622971692510026,1.185128745419557,1.1416378774909068,22824000000,
0.24545430527587397,1.1538445410063423,1.1432978698951606,22829000000,
0.2639087155385524,1.1839896933817473,1.1440358795137815,22834000000,
0.25888410200023976,1.169009700939595,1.145642489673854,22839000000,
0.24741031663124047,1.1851054185503092,1.147099157779702,22844000000,
0.239047666904183,1.1504121579801385,1.1477675967066532,22849000000,
0.28398607865684683,1.2131304169224402,1.1493588207287584,22854000000,
0.25207005144809336,1.2053201462527496,1.1504662520674487,22859000000,
0.26139730595359495,1.1832779165707437,1.151246023427547,22864000000,
0.27575375326597457,1.1962861036683021,1.1529313890569635,22874000000,
0.2490033749448999,1.1433683127701733,1.1537052755738262,22879000000,
0.23448940054779782,1.250232904216822,1.1538039730373817,22884000000,
0.22787544046951508,1.1532189895377458,1.1545613645447026,22889000000,
0.2661370998975,1.2300966366571175,1.1554801663281642,22894000000,
0.2640003908926821,1.2062569325823187,1.156076893099768,22899000000,
0.2535967668512678,1.196583957448774,1.1565273166162056,22904000000,
0.275510407750992,1.2188734218067847,1.157333874817315,22909000000,
0.27820358382260224,1.2039318633450733,1.1573895548386344,22914000000,
0.22041541558616204,1.1939600540372115,1.1579316034137395,22919000000,
0.22767273193516685,1.205468583057686,1.1582120662431927,22924000000,
0.26023530672133854,1.1975949199917728,1.1586507133469741,22929000000,
0.23848696896223048,1.2013567623564785,1.1593699628361807,22934000000,
0.27770966635791644,1.20203804933479,1.159184104199481,22939000000,
0.23827815476194716,1.2022169326667913,1.1591628657622546,22944000000,
0.2611259427043071,1.1765896412337558,1.1592499383521133,22949000000,
0.26654816830279954,1.243517451241903,1.1582718225705106,22954000000,
0.24741614967809752,1.2156625715482816,1.1584451355830745,22959000000,
0.22422012182664847,1.2113788333213829,1.1579671326833212,22964000000,
0.26426454440599195,1.1896473171712905,1.1574536286562926,22969000000,
0.2665190881945479,1.199997618543111,1.1576284215296153,22974000000,
0.2605327590161723,1.213716395811163,1.156566782063134,22979000000,
0.2633602338003389,1.2023312881563535,1.1562909734622333,22984000000,
0.260750866251504,1.2158588589527883,1.1552017084462078,22989000000,
0.28065240223481414,1.2228105651246903,1.1543733495467916,22994000000,
0.22550503186249507,1.1971708599995128,1.1539212883013958,22999000000,
0.2318396501880213,1.2218096208163287,1.1538242890440267,23004000000,
0.2459092618329519,1.2253616404491894,1.1531888978153784,23009000000,
0.26395011084707326,1.2131574916782883,1.1530427886739447,23014000000,
0.23488099740913432,1.2217517425011986,1.1527402809354428,23019000000,
0.27038477882157796,1.2429633646334153,1.151962557176382,23024000000,
0.2701893988444326,1.2027341835700884,1.1513214214990362,23029000000,
0.2964013165918427,1.2116877601388814,1.1510555159887983,23034000000,
-0.37676836947722103,1.3297340992332616,1.1524285753805443,23039000000,
0.18976436764892116,1.1539286527067978,1.1554503859208543,23046000000,
0.4835006156297736,1.2180029280171898,1.1540566229746156,23051000000,
0.31569183480012897,1.2449003605008748,1.1568177759090341,23057000000,
0.351082543049036,1.2115008992826608,1.1592455398270813,23062000000,
0.3276826556327843,1.2437071388492675,1.1621355177191777,23068000000,
0.3080706780462576,1.2182650500472634,1.16551886128256,23074000000,
0.2797042514795795,1.2477848816173354,1.1679922305298995,23079000000,
0.28787605709632125,1.253212914162837,1.170398785666636,23084000000,
0.25275512343534506,1.2598461015333604,1.1730638563607487,23089000000,
0.2671827797190572,1.2586070394426165,1.1753602850890228,23094000000,
0.25401605764369894,1.2368873255919157,1.17798201753203,23099000000,
0.22785394930131184,1.2777640593721997,1.179460854646433,23104000000,
0.27874066711214696,1.2703620451631097,1.1829964476113395,23112000000,
0.23615328542482206,1.2503824253240292,1.1851826025286933,23117000000,
0.24178033645676814,1.2908560088045602,1.187031286040973,23123000000,
0.2539410314537909,1.2394245029822526,1.188842229483554,23128000000,
0.23304773001472456,1.282034923144618,1.1902556563954596,23133000000,
0.2383937159366103,1.3048532898566578,1.1923050701387612,23139000000,
0.2842350765491884,1.279782596575466,1.1926620439679585,23144000000,
0.2327072401719836,1.2914649631838724,1.194200067822921,23149000000,
0.2973061511276818,1.2392089575815939,1.194702751206057,23154000000,
0.249149666639558,1.2778356418687706,1.195727078933965,23159000000,
0.25601725798310654,1.2244458004685956,1.1960876291789329,23164000000,
0.2660199221590739,1.2782749753816098,1.1971364368321848,23169000000,
0.273889054015188,1.2814665373444003,1.1974061363172297,23174000000,
0.2738032623125713,1.2611976244966812,1.197706170370752,23179000000,
0.25030220707032197,1.2681210433185677,1.1981732510663894,23184000000,
0.2561009995702696,1.2613918957012378,1.1986300011990159,23189000000,
0.2154831408485291,1.2390447596525869,1.1988519013230705,23194000000,
0.24260109072547115,1.2687388473885677,1.1987608811384896,23199000000,
0.2500117407823923,1.2860589163989282,1.1991265060964904,23204000000,
0.22857474425609975,1.271979166705344,1.1991171234087177,23209000000,
0.2587893102757623,1.2540364633849417,1.1989031679388225,23214000000,
0.23230324744884798,1.2863941948227398,1.199276802162982,23219000000,
0.24351512665226216,1.3015154369231368,1.198836176588587,23225000000,
0.2292697070376555,1.2735731549726625,1.1983652542699201,23230000000,
0.247661474934553,1.248512994837027,1.19830675286201,23236000000,
0.23414282263643924,1.2910021992969616,1.1976840438346852,23241000000,
0.22533152375847654,1.2787594931536366,1.1973213513032244,23246000000,
0.20729123396486723,1.2886949269811299,1.1960716803686593,23251000000,
0.19779267433604933,1.2755321858197228,1.195341692590793,23257000000,
0.22932354882961647,1.251020713172418,1.1940732780761785,23262000000,
0.24092972167986562,1.2683417261006227,1.193101008108841,23267000000,
0.20307354384953888,1.2527805889327386,1.1916466512801538,23272000000,
0.26147807689033303,1.249468121303901,1.1908988420809414,23277000000,
1.1173281039850178,1.426906559785735,1.1884036164462748,23282000000,
-0.21919884967982445,1.095523478827432,1.1819024314812037,23288000000,
0.3393130733656095,1.3028918667713127,1.18123648905375,23293000000,
1.1549218752674697,1.4696351341986706,1.1748101627916576,23298000000,
-0.5069742501448387,1.0561354191996062,1.1719704527460966,23304000000,
0.7034643773535632,1.3888302313056315,1.1618359963923708,23313000000,
0.3040821517444445,1.2809149157801052,1.1576745943416107,23318000000,
0.26366581849399656,1.2612895083946831,1.1536638267833537,23323000000,
0.12020714144534608,1.258761026201769,1.149828498568905,23328000000,
0.14208080770752385,1.0898706563734355,1.1453070879156224,23333000000,
0.0895304361851898,1.1529709115644153,1.1389179497262245,23338000000,
0.14572226152370577,1.0874268150947561,1.132030897912589,23343000000,
0.30745894708828875,1.2698090412001801,1.1197597296472541,23351000000,
0.3495599416770934,1.1269925102252547,1.1078034390816618,23358000000,
0.2607912978987598,1.1330275550537312,1.0989121967427382,23363000000,
0.30626223306305245,1.2174939618884861,1.0905620341262794,23368000000,
0.3698406556897277,1.0814812376441925,1.0818774182969886,23373000000,
0.1966329493262059,1.1841177872297597,1.0739358059232273,23378000000,
0.35200518235178424,1.2746352131816208,1.0663339449125933,23383000000,
0.40324957068382394,0.9614076554506783,1.0585739218243946,23388000000,
0.3182623183555567,1.236171642078035,1.051481116314963,23393000000,
0.2998218209125281,1.0421730302241814,1.0436295769065462,23398000000,
0.17565602046934162,1.1572683097018646,1.0371636934632835,23403000000,
0.20223350067738374,1.107370165676544,1.031640704913196,23408000000,
0.1128024456822623,1.1145347266520895,1.0270142492945398,23413000000,
0.14079786286010226,1.0896843044553162,1.025257810144556,23418000000,
0.11965846769047557,1.1120107261300045,1.0235498162034924,23423000000,
0.10539412768960554,1.1315686831913203,1.0232767243902103,23428000000,
0.11635241252391827,1.1448601125235565,1.0247396600510992,23433000000,
0.11043172957726258,1.1552186071479946,1.0274194372323517,23438000000,
0.14500524838828557,1.1064920725097627,1.0309775262747851,23443000000,
0.13362992851932826,1.1603195514608176,1.0350717046299465,23448000000,
0.15158179840578068,1.1572834397872636,1.0391801176761895,23453000000,
0.19215086409851012,1.0903047955798004,1.0435845123579706,23458000000,
0.1549392909939288,1.146366135906763,1.0476032130572333,23463000000,
0.17258890752630257,1.130670277289097,1.051027890216392,23468000000,
0.22125489782421517,1.1347027613339697,1.0546307869329605,23473000000,
0.2319251133206172,1.1289940827702964,1.0560558067973722,23478000000,
0.25483678913688146,1.1715791682240446,1.0575397662485948,23483000000,
0.19896749480005405,1.1448200780581514,1.0578968612188602,23488000000,
0.23315087720667763,1.1761846729986958,1.0577441530575615,23493000000,
0.21930829564461546,1.1645611796880477,1.056433310418682,23498000000,
0.21935444870789805,1.137353641366967,1.0548368839587319,23503000000,
0.1988968349930793,1.2148469639149035,1.052249745376058,23508000000,
0.16209378498880866,1.124697630799731,1.0499721635364476,23513000000,
0.2013081009509423,1.1410162014802563,1.0468350031843667,23518000000,
0.15863479429513597,1.1397956848316846,1.0444053016338215,23523000000,
0.15153771045866973,1.1461484791937853,1.0423538567077113,23528000000,
0.15891756596529102,1.1208244630726123,1.0402005507929886,23533000000,
0.17956178902171238,1.1368073687051492,1.0385455936807642,23538000000,
0.15813109489114527,1.144492093494278,1.037262924675068,23543000000,
0.12296519954527793,1.16245838899214,1.0370809075937604,23548000000,
0.17915952461808393,1.128443780457532,1.0364881080384474,23553000000,
0.12153848143914517,1.0786269489172418,1.0372115346391608,23558000000,
0.08968166885754895,1.1696890025274034,1.0378540860489343,23563000000,
0.13042361013550158,1.1751295362406895,1.0388410783436028,23568000000,
0.14260221288493324,1.1149891337462285,1.0402489137765054,23573000000,
0.2245319728019589,1.151162752995373,1.041408048675951,23578000000,
0.11587046131607676,1.1379576083356868,1.0424154885560624,23583000000,
0.16708153113173455,1.1192070743537392,1.0430459528484843,23588000000,
0.1404042145557627,1.1510522329237156,1.0442778668747579,23593000000,
0.12644438881256556,1.1302404080380972,1.0447328735282448,23598000000,
0.15284708855381068,1.1466636201736269,1.0449225686471577,23603000000,
0.14458770674604948,1.126496585818999,1.04495001456314,23608000000,
0.15618255009522067,1.1568090830850075,1.0445924151197312,23613000000,
0.17098748852960188,1.169670294808001,1.0444202676171739,23618000000,
0.09274471279901918,1.2236756908353004,1.0431014627223492,23623000000,
0.10572854766095414,1.2574757292573204,1.0416001345570565,23628000000,
0.17958958402097008,1.3100020014033866,1.0398744955984998,23633000000,
0.11877460652053808,1.2065488532183815,1.0378697561396613,23638000000,
0.10839193773308477,1.2835794630948574,1.0368541367398083,23643000000,
0.06811620018576793,1.4336214838245305,1.0353747907562085,23648000000,
0.06490650586506619,1.3642912143243378,1.03430715464063,23653000000,
0.07880951897687984,1.222408657270312,1.0327340868613535,23658000000,
0.12926624227386777,1.1211986204060036,1.030985985791552,23663000000,
0.12318151274874281,1.0943295992913218,1.0292872085055955,23668000000,
0.13153794651130238,1.0623885095388184,1.0281471059941691,23673000000,
0.13449680228199426,1.0768338075843609,1.0271851932146379,23678000000,
0.13320524036845904,1.0563108482290338,1.0261237468785895,23683000000,
0.0971948976785642,1.0575664061023238,1.024448472095462,23688000000,
0.09884872710703947,1.018271946124188,1.023602326111732,23693000000,
0.08521164279873528,1.0855991085751315,1.0227783971973878,23698000000,
0.11750917528663322,1.0570704326549927,1.0217611989733613,23703000000,
0.09396977039754442,1.0518987151412718,1.0210982005853,23708000000,
0.10339816478804913,1.0703288078859226,1.0201337491714002,23713000000,
0.09152302914455415,1.1041375912925868,1.0192397771437234,23718000000,
0.07415830936023973,1.083354731847459,1.0178494613677969,23723000000,
0.0959986349291971,1.0319840964357525,1.016910404929997,23728000000,
0.11997055894082381,1.0853972318222938,1.015803384160875,23733000000,
0.11627918349103374,1.06282568547219,1.014934338895207,23738000000,
0.0842585465548055,1.0726840092615308,1.0135012680450681,23743000000,
0.12248228262714428,1.1079431437026865,1.0121456716464157,23748000000,
0.07960870869161316,1.109543489176915,1.0105739014654396,23753000000,
0.11371533119526567,1.1075320749634683,1.0096563805726544,23758000000,
0.08876559904900286,1.119842933781332,1.0086051885592537,23763000000,
0.06667077132953549,1.0815997529020331,1.0075520214681186,23768000000,
0.1014492185329704,1.1437162524921067,1.0064467612931427,23773000000,
0.08697079958328213,1.0833345346487886,1.0060590482881293,23778000000,
0.09184607386619192,1.1184115145939941,1.005256774236985,23783000000,
0.10438555270043234,1.0657236294256287,1.004746699998718,23788000000,
0.09096279462319633,1.1176618378642256,1.0042045773825552,23793000000,
0.059203144464989005,1.0978816784630614,1.0038571727573184,23798000000,
0.084190666217304,1.1024156618052439,1.0031433167905133,23803000000,
0.08781510230830102,1.101097565507773,1.0030499280067782,23808000000,
0.08308195560584437,1.1089625980213988,1.0029218885279825,23813000000,
0.08666015589472077,1.1418048240530856,1.0025555735599814,23818000000,
0.043584697050224094,1.103106951177178,1.0023990504323455,23823000000,
0.034158860837314856,1.107991993287292,1.0017417729230413,23828000000,
0.06482992913376218,1.1277232022399315,1.0010449388961926,23833000000,
0.08511045982980249,1.0743765852580824,1.0007473302396066,23838000000,
0.03590884616260222,1.1345537139507573,1.0003497554061314,23843000000,
-0.4537847673879661,1.0499874092619972,1.002138409989816,23848000000,
0.016379409902956173,1.0994342188942843,1.005077468663212,23853000000,
0.5726580792028227,1.1582149230913095,1.0085430755882572,23858000000,
-0.3915962200984805,1.080800042330717,1.0102212676217226,23863000000,
0.020257238871764727,1.1214584391333742,1.0128755866748673,23868000000,
0.00036896307988599185,1.1321325302555663,1.0158912055957425,23873000000,
0.21625570670460562,1.1194206990011313,1.019429696285888,23878000000,
0.08758009310340384,1.150448522309725,1.0223251160799327,23883000000,
-0.06900599743788904,1.174234802275408,1.0250557813727066,23888000000,
0.0108160306055795,1.1733538610691367,1.026422265286649,23893000000,
-0.002316501987945401,1.1836341948984042,1.0282973647878308,23898000000,
0.01882339183802971,1.1493138525852054,1.0301588481551698,23903000000,
0.02625130205915488,1.1651254646824991,1.0320865340899728,23908000000,
0.008607570141118733,1.1484539355700967,1.0335998391606664,23913000000,
0.0011227186615790953,1.159668149892615,1.0350998370388205,23918000000,
0.03612600359908742,1.147950968675778,1.0361681663252582,23923000000,
0.03543780492735374,1.1623592267255685,1.0376929745650143,23928000000,
0.027262075615835404,1.1768558783413632,1.0388368876685135,23933000000,
-0.0012910723615075,1.1720497503019467,1.0399307296359641,23938000000,
0.0024626321952435568,1.1733171895306893,1.0410027050932358,23943000000,
0.013889364112242047,1.1718084830550326,1.041698730473333,23948000000,
0.00910793149026403,1.1570604128216233,1.0424814704681846,23953000000,
-0.0027961027229925963,1.1824673839404198,1.043588540933973,23958000000,
-0.009695346855676423,1.1834888918758997,1.0439533464277084,23963000000,
-0.0017562003089566826,1.1685491248610487,1.0453403388723361,23968000000,
0.015201605421340882,1.1890602448606,1.0455574803082783,23973000000,
-0.007107630224531003,1.1951773748420165,1.0462287875954601,23978000000,
-0.0006626756338512785,1.160601867793362,1.047167956874439,23983000000,
-0.011734460381833286,1.173628895300955,1.047978864359656,23988000000,
0.1599493143287499,1.2626040962975411,1.0486376782000777,23993000000,
-0.06031748053642371,1.0996206242387163,1.0482270646405965,24005000000,
0.15338182151124707,1.2787006092561741,1.0479434806010655,24011000000,
-0.011162389008091557,1.1754256892430588,1.0474532602757105,24016000000,
-0.214583252472487,1.0552455543700654,1.0471332965112912,24021000000,
0.14039761993244057,1.2812460936003869,1.0468013120023179,24026000000,
-0.039403345318951205,1.1289108495866438,1.0465178988954218,24031000000,
-0.02313708979541357,1.1780244687474801,1.0459966011634372,24036000000,
0.6283277600889822,1.2186788764320868,1.0412832410255821,24041000000,
-0.7199627718454387,1.1674402435412243,1.0369832726138062,24046000000,
-0.08689751614893305,1.1705398543250616,1.0364874247768556,24051000000,
0.041353743072643744,1.1185954701407637,1.036421518227413,24056000000,
0.605440363137555,1.174659445241831,1.0324821538204985,24061000000,
-0.6104439416212107,1.1652125055786835,1.029759233359583,24066000000,
-0.09773461786349814,1.1459106041429432,1.0295971122165868,24071000000,
0.6027833324549589,1.1484168369780803,1.0291797714556978,24076000000,
-0.08937134567766503,1.1591248291705527,1.026006068488608,24081000000,
-0.6471811979533244,1.1435970790160006,1.0248924276829698,24086000000,
0.5905614763369977,1.164566305863604,1.0249446727606182,24091000000,
-0.05776172371143949,1.158557741130786,1.0217472179718983,24096000000,
-0.6342487910711271,1.1386985086842591,1.0213085414203966,24101000000,
0.4474763260496464,1.150478371209243,1.0217549426100077,24106000000,
0.1778442852223383,1.1102310542973992,1.0184905384982446,24111000000,
-0.1541838734037398,1.18378492160748,1.0164207654907773,24116000000,
-0.633357431981721,1.1383523419215051,1.016697636160989,24121000000,
0.5244794936960246,1.1138869130039848,1.0155546718685817,24126000000,
-0.12922246131510992,1.1175234838475554,1.0138618109393576,24131000000,
-0.6095400899945612,1.11378129772545,1.01311607639689,24136000000,
0.5284872325041052,1.1702206150120997,1.0130630740647337,24141000000,
-0.07064737310456484,1.2149769191994082,1.0120419910264715,24146000000,
-0.06951920179420734,1.1294035258004018,1.0103153910814464,24151000000,
-0.5293009594601034,1.1330116293020598,1.0105641115841746,24156000000,
0.592112418993111,1.076478673752202,1.0101415983340414,24161000000,
-0.1638389333847519,1.182289180887782,1.0081835674524677,24166000000,
-0.12125787044307021,1.153677707745683,1.0067255420875905,24171000000,
-0.6239169331361971,1.1390067194270608,1.0058721240312856,24176000000,
0.4279159982098102,1.118742481516003,1.0059063942531383,24181000000,
-0.019032067820448396,1.1427982391210902,1.0048192837710161,24186000000,
-0.162530891978126,1.1265131886054283,1.0031637185124964,24191000000,
-0.09545438167166376,1.1267301433527528,1.0020987888082207,24196000000,
-0.5776823756305366,1.1356700746569937,1.0016534711003091,24201000000,
0.41139629416234513,1.1175052674561141,1.0012788826599237,24206000000,
-0.016901162343613864,1.1289263397264504,1.0000243740225003,24211000000,
-0.1866373767101338,1.1374685991918756,0.9990100638181618,24216000000,
-0.1144469978051629,1.0985108955953864,0.9974080174572952,24221000000,
-0.07031838685832302,1.1184621616737123,0.996660056026226,24226000000,
-0.07353578821820374,1.098960566213572,0.9954513746776421,24231000000,
-0.2521906739808545,1.1068696059008152,0.9963529772569631,24236000000,
0.17232168982312748,1.0263346755874991,0.995910771321858,24241000000,
-0.16371377992767863,1.1897521822705932,0.9944793542379573,24246000000,
-0.1016947659794226,1.1042377642676497,0.9939413486203516,24251000000,
-0.12297952866272936,1.0921806594940338,0.9933845765243955,24256000000,
-0.10994858594486788,1.1338789790038482,0.9932214591698679,24261000000,
-0.10219164082858771,1.1280481024791396,0.9928083499707835,24266000000,
-0.10401724490982668,1.098231241645902,0.9923160772467885,24271000000,
-0.11211122947029441,1.0979658959401055,0.9921987677146369,24276000000,
-0.11855358428240449,1.098342916442471,0.9919075615591822,24281000000,
-0.11359862190174104,1.11413992816829,0.991821571215315,24286000000,
-0.09918960729154776,1.1047639527950759,0.9913958633581036,24291000000,
-0.09437755413081911,1.089922239172234,0.9910145820585378,24296000000,
-0.4489075891211056,1.1232324176464055,0.9912331834196346,24301000000,
0.19188966096152915,1.0955463053404468,0.991557208607436,24306000000,
0.05830264608591556,1.1051691646793962,0.9909372192889122,24311000000,
-0.21188555681274865,1.1336888766365945,0.9900004251075003,24316000000,
-0.12656432856248986,1.085638980042678,0.9899086546270306,24321000000,
-0.12223590534266693,1.1196485168012706,0.9894870724642871,24326000000,
-0.10937852135180375,1.085658505507288,0.9887444849026346,24331000000,
-0.2459406131278184,1.1168110378398972,0.9901568155376617,24336000000,
0.19284716049929865,1.0329704524523722,0.9896777564713231,24341000000,
-0.31330767288720285,1.180077843539796,0.9891569452032608,24346000000,
-0.1979919264313548,1.1201432841460925,0.9885268155792947,24351000000,
-0.4588802083724822,1.1046076924628525,0.9892392197523124,24356000000,
0.16625449863411126,1.0917827299033849,0.9909107716479381,24361000000,
0.06799690369078426,1.09016837893364,0.9911198776780035,24366000000,
-0.23036737929662118,1.151292690240167,0.9909318914063723,24371000000,
-0.16965774257322946,1.1476606289634546,0.9914451466093791,24376000000,
-0.5565658687580923,1.1244016984335898,0.991506768018563,24381000000,
0.3120134478025244,1.2105804629758972,0.9926717293559123,24386000000,
-0.07904922228890587,1.0376026385687245,0.9925993843600589,24391000000,
-0.17786648318716172,1.0963567661225817,0.9919627605215775,24396000000,
-0.550213101940465,1.0863568396729435,0.9930928741316741,24401000000,
0.39917449032826796,1.126542736415495,0.9929266551659134,24406000000,
-0.21505641676453335,1.105739166380363,0.9922341159733734,24411000000,
-0.5322434402222261,1.0932449908272208,0.9921717452343677,24416000000,
0.14189209111596407,1.1003053124764968,0.993857867014105,24421000000,
0.0009764413429631871,1.1149081088132127,0.9944672806884274,24426000000,
-0.20059310012096995,1.1236619799058416,0.993690996619634,24431000000,
-0.5939586427624108,1.126442200617304,0.9941652745441113,24436000000,
0.24005843496708396,1.1196419315408246,0.9952048732120541,24441000000,
-0.04390030137387478,1.0921337769940305,0.9955383296929529,24446000000,
-0.18576363880189625,1.1161646957079898,0.9948287979193691,24451000000,
-0.5973715266196089,1.0817817020083136,0.996244592302145,24456000000,
0.2599142083542373,1.1183930067535337,0.9977447559311714,24461000000,
-0.011696303032488614,1.1571630572272331,0.9979573402072431,24466000000,
-0.14766442120199982,1.1384323908452403,0.9978444538975331,24471000000,
-0.6369434160338939,1.071398337677215,0.998356434295603,24476000000,
0.2665761802841387,1.1283416364245937,0.9998766090920059,24481000000,
-0.04203309915885772,1.1236940535556692,1.0003130242945706,24486000000,
-0.1866707220560404,1.123198531306298,0.9994575034318455,24491000000,
-0.6337161785972183,1.1147166686580203,0.9997874919409196,24496000000,
0.27846219167541963,1.084793534642918,1.001786241185937,24501000000,
0.014631063627318364,1.1197634997205388,1.0009341759308439,24506000000,
-0.1960118451652607,1.160779145232017,1.0000021906518177,24511000000,
-0.6190935877052316,1.1468607563363034,1.000676405158217,24516000000,
0.7114263183840296,1.1198955951506213,1.0007788150385506,24521000000,
0.014815641484217035,1.11881773349812,1.0003282467502683,24526000000,
-0.4812122297742051,1.1144401231393086,0.9991593096348962,24531000000,
0.18141235915388235,1.1229952167164525,1.0004080095428773,24536000000,
0.06951463738001751,1.113596087566594,0.9997859637924944,24541000000,
-0.21098270289358625,1.1177395834848165,0.9984100887890305,24546000000,
-0.18224942118174806,1.082549986925915,0.9982302980397448,24551000000,
-0.17783361123445504,1.0996336282482637,0.9996043769056814,24556000000,
0.1490583624663658,1.084684025156788,0.9995842448350777,24561000000,
-0.19503482679975562,1.1290968973062547,0.9982119253276783,24566000000,
-0.6205482370503306,1.11178190806496,0.9984589206195245,24571000000,
0.3351795944528432,1.173077778672249,0.999487514070148,24576000000,
-0.07143371168553245,1.0146679221919388,0.9992789676876915,24581000000,
-0.32025963154361103,1.1015908771208955,0.9977617461243375,24591000000,
0.22357835147231367,1.1352002475312877,0.9989804142724329,24596000000,
0.05983426675944594,1.117885192114548,0.9987312501348489,24601000000,
-0.2287671837533153,1.105954231063191,0.9973968991371231,24606000000,
-0.14441755754380514,1.133378157301511,0.9968656205133949,24611000000,
-0.12429167295853746,1.0986689894419135,0.9960328596137276,24616000000,
-0.1341618567877884,1.0909376597631892,0.996630319292126,24621000000,
-0.02381031735152505,1.1161581360425599,0.9965904105950394,24626000000,
-0.21265827035199,1.1426376222456245,0.9951185923533598,24631000000,
-0.14786282033207704,1.1383929181905403,0.9949094737544039,24636000000,
-0.12207696817984333,1.1373736949584927,0.9938239127097788,24641000000,
-0.48993341371011756,1.1054779614775732,0.9943157825652218,24646000000,
0.3219334790220958,1.219508925875087,0.9941769397700729,24651000000,
-0.14882810456405468,0.9818218646831832,0.9931736950648842,24656000000,
-0.1829090220313174,1.158870142783885,0.9921299524912204,24661000000,
-0.10611285356220065,1.0847062486481585,0.9916985944419877,24666000000,
-0.14203526330411353,1.127558580754945,0.9913216313527483,24671000000,
-0.12294975590821278,1.107305542294952,0.990819281639791,24676000000,
-0.12877782120618952,1.1551990093379993,0.9904245694197644,24681000000,
-0.08806603800468915,1.1045802728097442,0.9902723945857794,24686000000,
-0.14055602769367467,1.1404716330896196,0.9900247524273151,24691000000,
-0.13902780289448,1.0909538000068777,0.9894782455717858,24696000000,
-0.10960940805002815,1.1453416464928943,0.9887838612351784,24701000000,
-0.12680388971718815,1.1045220550385906,0.9887637634526054,24706000000,
-0.13051059206341395,1.0964604969251224,0.9886059518273621,24711000000,
-0.11606050672312454,1.105850999334879,0.9882450253736654,24716000000,
-0.09810794673003168,1.111730838863191,0.9877295562825197,24721000000,
-0.10464001366632576,1.1552905299471656,0.9872119567204306,24726000000,
-0.10948482807708856,1.0766041739597156,0.987304073502131,24731000000,
-0.0764446565769963,1.0746946073436638,0.9872895159121149,24736000000,
-0.06844454205747852,1.1142431410387246,0.9866559279996537,24741000000,
-0.07106900032146102,1.1080578161986074,0.9866475549322068,24746000000,
-0.08176246914884953,1.1116232467751204,0.986383387665374,24751000000,
-0.10819383348891315,1.1000137250922275,0.9859551503225855,24756000000,
-0.09351165451740141,1.1083253978083774,0.9858884844161703,24761000000,
-0.09046522456499614,1.1320682433624782,0.9859281537011473,24766000000,
-0.10498747063305919,1.1132105504522332,0.9859339347717375,24771000000,
-0.08358866442112432,1.1026585042253967,0.9851532734766598,24776000000,
-0.0958833343224757,1.1130188765829365,0.9855688369826169,24781000000,
-0.08330320512796469,1.118043076948065,0.9852894586771959,24786000000,
-0.08012617173752908,1.1439202333524945,0.9850640221065221,24791000000,
-0.08157618622067761,1.09448002510123,0.9844977963144431,24796000000,
-0.07959733569802717,1.127594633394655,0.9845859863543885,24801000000,
-0.10914681812485505,1.0962494825801576,0.9844762295798948,24806000000,
-0.09839686005010334,1.0985571332274529,0.984422005654234,24811000000,
-0.09092110209430762,1.1319471595723347,0.9844084094131034,24816000000,
-0.07529691676700534,1.1190470424112609,0.9844303446175097,24821000000,
-0.08464671397286862,1.101535518016131,0.9842850022490052,24826000000,
-0.0861731778720632,1.0984702351678897,0.9843549572475933,24831000000,
-0.07746867039908409,1.089633011199749,0.9845802313078206,24836000000,
-0.08187838878230123,1.108751303402433,0.9845175183004313,24841000000,
-0.0576444215343777,1.122744922654862,0.9851963026910696,24846000000,
-0.07261004116341906,1.1067740863707598,0.9845106879831441,24851000000,
-0.039654518853237244,1.095041359964967,0.9846727631889017,24856000000,
-0.022505074936577676,1.1098688993445667,0.9843654060172998,24861000000,
-0.08919712469118032,1.0992954461129814,0.9845702168893007,24866000000,
-0.036661734666675286,1.1219173215501688,0.9845294806978644,24871000000,
-0.09745909947559143,1.0788529379714535,0.9842456080297642,24876000000,
-0.04528535195538333,1.1014133511973097,0.9842877942846752,24881000000,
-0.07372316289746564,1.089585696800973,0.9841395190710669,24886000000,
-0.06756011742757335,1.0853260684864556,0.9840164547314709,24891000000,
-0.0786714433193212,1.0871774102058518,0.9839592074046831,24896000000,
-0.04838241903708218,1.0983607488650333,0.9834310930288793,24901000000,
-0.04249683050241078,1.099884910496552,0.9833727033140968,24906000000,
-0.03961398625800391,1.1269049779139841,0.9833063950148515,24911000000,
-0.050261558297059875,1.0861443963815027,0.9836144147980528,24916000000,
-0.03625094114577265,1.1457000991359838,0.9834535703604806,24921000000,
-0.01032308433435447,1.0291169060473513,0.9831083085729853,24926000000,
-0.07180268582619141,1.1273147649183213,0.9830494336419803,24931000000,
-0.010261252123496326,1.0635302844607566,0.9830483738818585,24936000000,
-0.023942176249716826,1.0588495888556473,0.9825359354797728,24941000000,
-0.036084106520249605,1.0956745121444995,0.9827115376136158,24946000000,
-0.06287386215510951,1.0877254809582635,0.982729983364521,24951000000,
0.03942313752440078,1.0013242427694773,0.9821038753111186,24956000000,
-0.0540949101255477,1.137924850327431,0.9818184480966393,24961000000,
-0.14426809942409324,1.1928630598919734,0.9815376873485883,24966000000,
-0.00013321561058260954,1.149643515168073,0.9813212722105045,24971000000,
0.09370202909391087,1.0470960158510454,0.9813485901829679,24976000000,
-0.11144789556342177,1.1450189698949806,0.9814108060184642,24981000000,
-0.002800319037236357,1.0955677491620723,0.981795783275616,24986000000,
-0.003669867266366901,1.1074863492190756,0.9816189645763667,24991000000,
-0.47840171701354234,1.1300000035759319,0.9822143888335674,24996000000,
0.037978627565688663,1.1225980904864459,0.9842143920049917,25001000000,
0.4655659149561724,1.173451670258529,0.987673699978678,25006000000,
-0.02387876450808811,0.9793826169071782,0.9884289399122087,25011000000,
-0.3621468397914989,1.1007328481231284,0.9891284285292836,25017000000,
0.3035104698660676,1.1213130880882385,0.9910635312353373,25022000000,
0.30468873723362416,1.1667913684303042,0.9910831839524117,25027000000,
-0.035610528700198284,1.0224350024623956,0.9903862755343702,25032000000,
-0.39679091541705214,1.1413295159210441,0.9905720141425188,25037000000,
0.4755011400048671,1.1265559291627754,0.9910701689009496,25042000000,
-0.022609482138767685,1.0283495440313561,0.9904648589552935,25047000000,
-0.0028348543995233583,1.1431900039452478,0.9900949993722218,25052000000,
0.03134126852069781,1.1044488424841374,0.9898606800766403,25057000000,
0.022025679869368327,1.1131267406450045,0.9889846101932684,25062000000,
0.04840024407722765,1.087760956495417,0.9886629086371703,25067000000,
0.09188937673996828,0.9056531866915506,0.9872960369310493,25072000000,
-0.019356634572721458,1.1787234588577564,0.9863851296929004,25077000000,
0.03519731541692672,1.1366372928047845,0.9853730154667704,25082000000,
0.03041707382808425,1.1209677571280103,0.9845871432829628,25087000000,
0.07681970183237782,1.0854082898318516,0.9843454898435529,25092000000,
0.04585885393798568,1.0940166167809153,0.9831334430668804,25097000000,
0.06379379236032526,1.082451427102188,0.9828984129815979,25102000000,
0.03529925874095685,1.1224896176543315,0.9828787806828843,25107000000,
0.07310713186442722,1.1007675185276984,0.9824379888590266,25112000000,
0.09869806913610811,1.074087363106524,0.982807789350883,25117000000,
0.06261177345814,1.09559245754645,0.9828343293779334,25122000000,
0.08914405487323822,1.0942417359528591,0.9829463735363426,25127000000,
0.050707507192735576,1.1186070575083238,0.9836059941422073,25132000000,
0.031458973327967356,1.074566972540042,0.9840014595964847,25137000000,
0.04538251633373626,1.1043717050829203,0.9842309271409762,25142000000,
0.06046718778417873,1.085363211468398,0.9848065644159222,25147000000,
0.058900313789303604,1.097914469510036,0.9853230316894408,25152000000,
0.032540244526551756,1.06970457401941,0.9860176959829686,25157000000,
0.06921267547995162,1.1071891003986845,0.9864634779452983,25162000000,
0.08640316833618,1.065554634722583,0.9866902362325941,25167000000,
0.10767093082208218,1.0953632398962239,0.9870930409400578,25172000000,
0.09320337018138161,1.098037080748494,0.987293112955168,25177000000,
0.10245226077920924,1.0914607802857264,0.9876003759438068,25182000000,
0.09263170161137066,1.0936981538635326,0.9883659867809486,25187000000,
0.0734822153254484,1.0896128464238146,0.9883602162693094,25192000000,
0.12372796627120296,1.0670153996340397,0.9888156295472722,25197000000,
0.07530508305303879,1.0917505155499276,0.9888073130421945,25202000000,
0.11471926063557704,1.0936757750673813,0.9892506946209207,25207000000,
0.08733300833233869,1.089631053449525,0.9892866702981664,25212000000,
0.10595250211783752,1.1209394065237914,0.989542565683828,25217000000,
0.06845096576120369,1.1073302935812381,0.9898660114642808,25222000000,
0.06168838826397288,1.0988175433911906,0.9901580096017273,25227000000,
0.08246429475569869,1.0944587048600862,0.9901925942582439,25232000000,
0.11419041908875717,1.0331876641165767,0.9904991479733946,25237000000,
0.1353195715846688,1.0459761700638135,0.9912501658106122,25242000000,
0.10113662625397685,1.0652073988913093,0.9914026369716021,25247000000,
0.12128441121808442,1.0441416161227421,0.9927352480654791,25252000000,
0.17871995202558735,0.8156024322003781,0.9936620040170943,25257000000,
0.135108352281096,1.113226081865033,0.9939013174295389,25262000000,
0.09290023115425873,1.251875885920898,0.9952368104959657,25267000000,
0.14012583125378147,1.1580953734789323,0.9958159364868373,25272000000,
0.13738039735364907,1.1764927662872386,0.9960952802830473,25277000000,
0.12936521621155644,1.1088664474828054,0.9967873429428881,25282000000,
0.12058852571920543,1.0804621907476366,0.9973739761645594,25287000000,
0.14713198478734194,1.1334356752751746,0.9980464722710427,25292000000,
0.10308902234425732,1.211978964807927,0.9983565167859892,25297000000,
0.14276035328712242,1.1605448542540526,0.9989171607084784,25302000000,
0.1386834608674524,1.1328937079146422,0.9994245674293826,25307000000,
0.14889039369579152,1.1168230775740484,0.999706503440345,25312000000,
0.1719762668479384,1.1256791439788338,1.0005344053769143,25317000000,
0.15546107421064445,1.1260652483526767,1.0013526495839835,25322000000,
0.1235209751412087,1.0920647027579395,1.0019442679759876,25327000000,
0.14379809619216605,1.1228669195870558,1.002875373850734,25332000000,
0.1466011303969894,1.1254074312965967,1.003694795421163,25337000000,
0.15021299590002649,1.0929269293163952,1.0041625340059717,25342000000,
0.17471203832119814,1.124664161501541,1.0049028136660265,25347000000,
0.13600997771471238,1.108823124933943,1.0056451854728965,25352000000,
0.1528944457696069,1.1059110341989968,1.006046310307324,25357000000,
0.1700242140826744,1.1244279743586152,1.0068470247145669,25362000000,
0.15466120619697776,1.0910446568655279,1.0080819548537163,25367000000,
0.12765973857049434,1.116441813625839,1.0088332418499855,25372000000,
0.14818896029134587,1.086999364631129,1.0096581925796442,25377000000,
0.1507779371217076,1.1054730310079706,1.0101369685963784,25382000000,
0.18506150409982236,1.105484135814573,1.010354345778777,25391000000,
0.18978709277276268,1.1142352049807005,1.0121038957274975,25396000000,
0.13963737138246388,1.0922579846876903,1.0131747221953944,25401000000,
0.1664381592361908,1.1041603772224977,1.0139154432061888,25406000000,
0.16693228488530845,1.1193426288194557,1.014833821840834,25411000000,
0.1971277086289709,1.1241122336503075,1.0158752236043402,25419000000,
0.18276918624403313,1.1157515576213146,1.0171437609933158,25424000000,
0.13568261084478667,1.091078136687218,1.0182246024685193,25429000000,
0.1750861163255814,1.1099256385830125,1.0189109082370476,25434000000,
0.13325849324013322,1.109361129052117,1.0197314643844568,25439000000,
0.18138213957734894,1.1100551393103406,1.0204191313712352,25444000000,
0.19190705460630877,1.1214973010043934,1.0210615411757367,25449000000,
0.17131592056043107,1.1176480680736463,1.0221185246296094,25454000000,
0.17847770206446173,1.0576929017853722,1.0225739910946923,25459000000,
0.18740907004108973,1.0777327865575324,1.0235427733056641,25464000000,
0.17213748997748413,1.1157058206331416,1.0243405133071763,25469000000,
0.16316515621341476,1.1081987556140245,1.0249837503324994,25474000000,
0.22463712688814985,1.1026538585208607,1.0263003169461866,25481000000,
0.17109059934030096,1.108029066156349,1.0270995160426954,25486000000,
0.18183166897380454,1.1187435802683814,1.0279173811873286,25492000000,
0.15904938707581334,1.101946169704284,1.0290902675930322,25497000000,
0.1765501720459589,1.1216185114303394,1.0298305956699796,25502000000,
0.18834774902090362,1.150606294913389,1.0308560750226599,25507000000,
0.20969257566129249,1.1281242118171728,1.031713955060183,25512000000,
0.18302107637990564,1.1209325064904458,1.032783481261513,25517000000,
0.1478240061525967,1.118379473140857,1.0338522052526686,25522000000,
0.2243813065361368,1.0669446460153784,1.0346424406606565,25527000000,
0.17742137274463973,1.1159600907767577,1.0355166758890766,25534000000,
0.16842158323258322,1.0911428671885521,1.036505093954462,25539000000,
0.18906000708728654,1.1302548116544677,1.0370934308288517,25544000000,
0.1940737551171734,1.1255908810540196,1.0373563985459051,25549000000,
0.20319966890396265,1.1051053465595804,1.0382860541439394,25554000000,
0.19538614175435318,1.0708077013133488,1.0387572221102837,25559000000,
0.2060654138309605,1.1255393303404722,1.0394606981759311,25565000000,
0.17957381716289172,1.0972301532859232,1.0397557431741127,25570000000,
0.18853185871792882,1.0911245349249947,1.0403814971293899,25576000000,
0.20930165012344265,1.1368828914701667,1.041038475681827,25583000000,
0.17141728758619942,1.1492245626174513,1.0420789025852208,25588000000,
0.18440955795889874,1.1325697153380563,1.0428421908697212,25593000000,
0.1886422990800611,1.1191389463789287,1.0436435665432038,25601000000,
0.18476556285458864,1.1064748723969966,1.0446536601013625,25606000000,
0.18796318153403666,1.1168649158442323,1.0451539581536349,25611000000,
0.16930771926421684,1.1320564869531857,1.0457578550509725,25616000000,
0.17813664195633525,1.1444601118438553,1.046529556684236,25621000000,
0.1733733542105187,1.1397380030126885,1.0469157903931772,25626000000,
0.2151288640335899,1.13373457360321,1.0472908994057337,25631000000,
0.20019797971706252,1.098102270583173,1.0480813617480578,25636000000,
0.19386994381784378,1.1286770117816955,1.0485636283689552,25641000000,
0.20703711538315156,1.1107587432821149,1.0490968087536816,25646000000,
0.1842681543165993,1.155686283522878,1.049239450974451,25651000000,
0.19874336988653687,1.1205271217784283,1.049476985637366,25658000000,
0.19519934490656898,1.1254564725845284,1.0499210582161353,25663000000,
0.18438704321034016,1.1178804944574088,1.0496659997476727,25668000000,
0.19986408918273307,1.1086704134214953,1.0502392112036163,25673000000,
0.20246983070747035,1.1465189144483838,1.050074096388606,25678000000,
0.16310072487584615,1.117075907496305,1.0505970465082717,25684000000,
0.1888172286098156,1.1368320543054546,1.0505912532859323,25694000000,
0.20969875772217964,1.121037992399319,1.0515874226973287,25699000000,
0.1907690448071306,1.1178011208746215,1.0520175430415197,25705000000,
0.21443935427928232,1.1485650753063898,1.0519661155057805,25710000000,
0.18351110855770128,1.12058254175217,1.0524815712870905,25715000000,
0.2048848059549556,1.1096558934270058,1.0528390031161738,25720000000,
0.16293885822608253,1.0863873377376905,1.0530089533055693,25728000000,
0.19974447025563702,1.1388007749840154,1.0537187095712126,25733000000,
0.20419789494241203,1.117441347120915,1.0536451842703405,25742000000,
0.19574252751961946,1.1399135076941773,1.0538817860825267,25749000000,
0.1761475176843955,1.1500388142765543,1.053685128738977,25754000000,
0.1991095744412456,1.1334333062103035,1.0540764904108626,25759000000,
0.1759140307966515,1.1171654650042728,1.0536256153208228,25764000000,
0.18969549965778223,1.1130636561225191,1.0538015314315359,25769000000,
0.18812406881445334,1.1227959156837637,1.0538386103162272,25774000000,
0.17833145427908734,1.17432132903753,1.0534063554846858,25779000000,
0.17871817470634574,1.138864004491108,1.0530317276568757,25784000000,
0.17790412320337953,1.1330839394098289,1.053669392548637,25789000000,
0.16586377332823515,1.1276468146410112,1.0532077183554847,25794000000,
0.20513275750046384,1.149611966280602,1.0529987733618462,25799000000,
0.16767191079388685,1.120141276535893,1.052944167608873,25804000000,
0.18690565146868637,1.152531439710212,1.0529283453266525,25809000000,
0.20068322687108694,1.1106866010512162,1.0531545699167055,25819000000,
0.1880112522828883,1.1208745888909086,1.0528456144906957,25824000000,
0.1844909657049987,1.1118797634169701,1.0527962185168367,25829000000,
0.18784636061553586,1.1452240860169847,1.0526963393214268,25834000000,
0.1791710816500883,1.1512667215455072,1.0524186044498185,25839000000,
0.19088031952090265,1.1534370281958903,1.0523606999881499,25844000000,
0.16407249244251348,1.1319943668215242,1.051695814902261,25850000000,
0.17421601081943494,1.132089527623162,1.0514170099745515,25855000000,
0.19776391339730215,1.173247235912809,1.0513264102267448,25860000000,
0.19226225231045593,1.1352355367095175,1.05044718200653,25865000000,
0.17580660678211565,1.1453011434823785,1.0501202509881908,25870000000,
0.18071352594317716,1.1320458717450552,1.0498939872924382,25875000000,
0.17086807671189533,1.1610475840622356,1.0495751960317279,25880000000,
-0.4119677128190748,1.2116147756218187,1.0507590726303362,25885000000,
0.664997951581244,0.962056908950055,1.0512448762617632,25890000000,
0.214510946818873,1.1905359984751134,1.0505800719594003,25895000000,
-0.3596603508622924,1.234823902335709,1.0522637182136547,25900000000,
0.7514574142867334,1.0335006424781665,1.0530324818891927,25905000000,
-0.3054210911153096,1.215271693693161,1.0530399828157124,25910000000,
0.1118570208596335,1.156680633649421,1.055605011341656,25915000000,
0.7669197093714698,0.9935823922706861,1.0567259825069257,25920000000,
-0.40696859495711457,1.286093433138556,1.0564563695478062,25925000000,
0.1994224108215037,1.1647694413649627,1.0587287970484323,25930000000,
0.10763200590821353,1.1227631107213003,1.0608888829542225,25935000000,
0.8505255737735454,1.1065417423390833,1.0605093014725913,25940000000,
-0.4509656165969249,1.2173061574061776,1.0622770735148568,25945000000,
0.18121924442208068,1.130089682721118,1.06416711014276,25950000000,
0.11910938790474725,1.1452194275385628,1.066411025144549,25955000000,
0.17498365319493547,1.1835462878167196,1.0672164028740074,25960000000,
0.16392495289212602,1.1518826545482401,1.0668275256910387,25965000000,
0.2518082073158763,1.1790170941457079,1.0689432200102313,25970000000,
0.13907264821484036,1.0786978377560272,1.071440397666854,25975000000,
0.07624666200319444,1.1211202835141554,1.072628001287515,25980000000,
0.9112572942126737,1.208886433983724,1.0718994771279213,25985000000,
-0.5268043079337377,1.2437801680783076,1.0735620449817729,25990000000,
0.18508134422927242,1.1724622861321856,1.074727545821647,25995000000,
0.10069210111653519,1.189957084930682,1.0759342114914625,26000000000,
0.8711423082351935,1.1704139548485852,1.0757407163810173,26005000000,
-0.5833647021848622,1.186386294661802,1.0751678078816174,26010000000,
0.22776692180225244,1.1668515177895646,1.0764569815423553,26015000000,
0.8246215290103165,1.250855489049621,1.0770375828024494,26020000000,
-0.35176795154613305,1.10605026190893,1.075061164317336,26027000000,
0.1541826996551589,1.1730859746122724,1.075756718141889,26034000000,
0.6694900612689074,1.161427063774133,1.0721979262724333,26039000000,
-0.575328671918587,1.1736042706230685,1.0727071379252977,26044000000,
0.8874666683616517,1.1830877405594156,1.0724486281126144,26049000000,
0.15643978359697192,1.1217404847673609,1.0681012943862307,26054000000,
-0.596488130705564,1.1987476939001263,1.0687706416293161,26059000000,
0.9498673421318324,1.1680346206270007,1.066475491113861,26064000000,
0.09796762989730372,1.165785510224016,1.063162595091106,26069000000,
-0.5609208086991915,1.185358863212203,1.063640479287522,26074000000,
0.7528491729995115,1.1798310651699746,1.06074256025635,26079000000,
0.14529676430079838,1.1291736400042927,1.0575575149240497,26084000000,
-0.5738225650108151,1.168779273368458,1.057671543006628,26089000000,
0.8286597736594138,1.1526302427548663,1.0542924945250218,26094000000,
0.22163318886795405,1.1682070425808775,1.0513196685067587,26099000000,
0.15023503631597723,1.1787636159248578,1.048932707299798,26104000000,
0.09891386785026006,1.1705366073884855,1.0487718826048011,26109000000,
0.038426586432512094,1.124006536373357,1.0456529293871584,26114000000,
0.23269039195838262,1.1499461373970472,1.0432700443561156,26119000000,
0.21150212283821482,1.1693542387825948,1.0412582666260293,26124000000,
0.15570517686494317,1.1357379782598627,1.0383914711217568,26129000000,
0.1078233690651543,1.075453445888187,1.0366872404306708,26134000000,
0.049783600700780334,1.08794111298851,1.03477771916341,26139000000,
0.16619673495439957,1.1138290088464935,1.0333770567338043,26145000000,
0.11895589099931905,1.114094066770882,1.0317946045461368,26150000000,
0.1666970179820746,1.0884327121122097,1.03072753857928,26155000000,
0.16345914995332436,1.1434057911802045,1.0295467880218967,26160000000,
0.16325999254020768,1.1219465619834124,1.0284932883607951,26165000000,
0.20187432457341106,1.1569825759915717,1.0274256680598133,26171000000,
0.14283347778993583,1.1835854843156721,1.0259798250125527,26176000000,
0.13443162214304916,1.1653744690678731,1.0248418559672166,26182000000,
0.16856962298226869,1.1598481433383239,1.0235052549089056,26187000000,
0.15814740464674792,1.124444992449625,1.0213497114902228,26192000000,
0.1328120667560399,1.1272644789651516,1.0200696454376683,26197000000,
0.12540784135486518,1.1172545954544661,1.0189847814652333,26202000000,
0.09295549881369711,1.1288545135574104,1.0177387098734005,26207000000,
0.09942309979952607,1.1296869448857636,1.0164552705711616,26212000000,
0.12302671908045652,1.1109389880067702,1.0137446275179904,26219000000,
0.13342305184307435,1.0910649323733943,1.0121568535464875,26224000000,
0.1388988481239111,1.1486897964613694,1.0109692394822283,26229000000,
0.1347159851788557,1.1115117982648677,1.0096729296717426,26234000000,
0.1319001601321896,1.1098095366178675,1.007771530706491,26239000000,
0.10902694807036376,1.105749196486039,1.0071598869378249,26244000000,
0.11910907328501122,1.1154734331326288,1.0053667650466924,26250000000,
0.11862186081911456,1.1115110919563944,1.004126215804312,26255000000,
0.12865933759340453,1.1088813962436024,1.0028506970077138,26260000000,
0.11352153806049188,1.0939811181799475,1.0021101342233663,26265000000,
0.08153896641260597,1.101279481445829,1.0007204188562104,26270000000,
0.12528547623216174,1.0761220600059207,0.9994590295790089,26275000000,
0.09345460868170294,1.1171570294267017,0.9987979548702697,26280000000,
0.10358575607291379,1.1505306302843743,0.99732313816335,26285000000,
0.11684505488081506,1.0957784650883327,0.9969361223667166,26290000000,
0.10234748215587948,1.1325051958730175,0.996272163658499,26296000000,
0.13540616769822042,1.1173645136697636,0.9952137963653948,26301000000,
0.16007489103925993,1.088425173377971,0.9947098153449765,26306000000,
0.1018562908562491,1.1144257576944785,0.9937679822057822,26312000000,
0.13971101544466216,1.100975501906816,0.99316171391992,26317000000,
0.13925724812635754,1.100203345226459,0.9926056058687411,26322000000,
0.11352207334274825,1.0875399816074138,0.9917411384115955,26329000000,
0.10836034743289387,1.0846964162750952,0.9913829524357831,26334000000,
0.10434113799078898,1.1308626114728593,0.9902693378073535,26339000000,
0.10035338769627052,1.102267148616637,0.9898676279925759,26345000000,
0.10470906945693254,1.0998906970590605,0.9899316824198406,26350000000,
-0.7604638262126463,1.1297671855543774,0.9907300117544745,26355000000,
0.5324761976827068,1.088747075300033,0.9929448900707485,26360000000,
0.05321130762028971,1.1078090287659308,0.9928867373383458,26365000000,
-0.4117979292715896,1.109144415275906,0.9947583739278836,26370000000,
0.5091729629758617,1.0431198449987498,0.9966525307397559,26375000000,
0.19682860110752512,1.1917785279214566,0.9970990471802154,26380000000,
-0.36723129993384074,1.111183649481695,0.999387498508952,26385000000,
0.6106898345840246,1.1081905730411403,1.0009757261972498,26390000000,
-0.3586612120511847,1.1286658554410072,1.0015147228967602,26395000000,
-0.043007415436054366,1.0635387841161426,1.0032253785877339,26400000000,
0.43462477152215134,1.1401999280395545,1.0058679755406448,26405000000,
-0.1274234487214017,1.1559670574341419,1.0059564660794338,26410000000,
-0.06299010220772547,1.0717826963883899,1.0076758218735817,26415000000,
-0.030881012148550248,1.1186525866510122,1.0104850713126519,26420000000,
0.6145312026335042,1.1273386437602362,1.0111450422843007,26425000000,
-0.31532250891548846,1.1506399894787476,1.0132941093011252,26431000000,
-0.023013113154955054,1.123377419512345,1.015215335385573,26436000000,
0.09777420540651548,1.1703121801839005,1.01632453343195,26443000000,
0.05182262054735323,1.1147807219422243,1.0171219237674143,26449000000,
-0.011027539586107693,1.116709930561754,1.0192972472011899,26454000000,
0.5073473777106087,1.1351449162376857,1.021076731417081,26459000000,
-0.10567166619371207,1.1247737719486735,1.0237197924294008,26471000000,
0.5828740579547307,1.133027495157403,1.0246690982220144,26476000000,
-0.4817670844483093,1.1814098912130973,1.024149741872262,26481000000,
0.05979544263015435,1.13314542730616,1.025879086551027,26486000000,
0.005172467449171315,1.1091798311377705,1.0270934834790897,26491000000,
0.5832485774385717,1.1378148587333736,1.0262602976180701,26497000000,
-0.5805069350826527,1.1369704693603293,1.0271360655084458,26502000000,
0.029553255092940826,1.1384337822994137,1.0277218350475597,26507000000,
0.3832824743686743,1.1035703420345229,1.0273975176576107,26515000000,
-0.7588528174519145,1.1433170682273819,1.0274534429648214,26520000000,
0.041939302141198335,1.154046550528467,1.028392591121059,26525000000,
0.6640844828420948,1.1285572978130938,1.0274559277401805,26530000000,
-0.6442218288585504,1.1622032478142552,1.0259645642660076,26535000000,
0.08061235026369976,1.1610563254214408,1.0262699883842135,26540000000,
0.5069327814588432,1.0806331717470656,1.02713779882166,26545000000,
0.1761845288407081,1.1039666811558944,1.0238236018210976,26551000000,
-0.45832192146587236,1.148298115074433,1.0244014688447916,26558000000,
0.5738861837645218,1.1894245720668608,1.022043654692829,26565000000,
-0.49320410423915306,1.1303626706549734,1.021682886882727,26572000000,
0.7684766200624664,1.182030574718961,1.0202134934218545,26577000000,
-0.09414580835609729,1.1027216185460804,1.01723615836975,26582000000,
-0.6514824014703994,1.1216524617517802,1.018141603567738,26587000000,
0.6002281647923431,1.118724456957668,1.0174086157570095,26592000000,
-0.30398201120536955,1.1524045416400865,1.0141420096400198,26600000000,
0.39833872028269557,1.0849110207546127,1.0147454965025555,26605000000,
0.12027081452196274,1.1155911216843981,1.0125826502057587,26610000000,
-0.47386255740933086,1.1608295413891934,1.0108263716442507,26615000000,
0.3099926711183455,1.0912501724005905,1.0111087006509243,26620000000,
0.21457110474449206,1.2026286501067858,1.0094434364206961,26625000000,
-0.017618295808481045,1.0986921593604193,1.0066585067366502,26631000000,
0.07582168931425756,1.0245198331084882,1.004850556134041,26637000000,
-0.027049587668330412,1.118760397005588,1.0028360874541504,26642000000,
-0.03248671371451457,1.1142612881663727,1.0012936388587939,26647000000,
0.011617935134236597,1.118503544526514,0.9993194186525712,26652000000,
-0.038122035956203504,1.09633713295862,0.9977446254271518,26657000000,
0.002184296899165458,1.0986316778246372,0.9963219664679029,26663000000,
-0.006527361315623707,1.0999002441059818,0.9952242029321399,26668000000,
-0.025502004516090773,1.0991414048198005,0.9945141977489238,26673000000,
0.20035354407055309,1.1806165175672534,0.9932196665866716,26678000000,
-0.1660934276748786,1.0851868210031048,0.9920346457492472,26683000000,
-0.06492919064162808,1.0900379509698166,0.9893175438031613,26694000000,
-0.05657384644048563,1.1345814526132842,0.9885926732183373,26699000000,
-0.03804531865618668,1.0845042320282736,0.988349581645947,26704000000,
-0.03920117925677008,1.0869739781996013,0.9877888221633064,26709000000,
-0.04285307376438562,1.0733057376653157,0.9876401292214346,26715000000,
-0.01533621963504555,1.0670801732742379,0.987337450478048,26720000000,
0.01716563942227265,1.0785467979097474,0.9867084866316216,26725000000,
-0.04376478782855832,1.0733776363081349,0.9871653930639127,26731000000,
-0.04366016293763159,1.0967901956624346,0.9869449562219123,26737000000,
-0.05735805413444241,1.1236005074959856,0.9868143136445294,26742000000,
-0.03570783238063055,1.1245986779439476,0.9873046622468602,26747000000,
-0.051642923674250316,1.106895550867408,0.9875462549552275,26752000000,
-0.07548963515211614,1.1218456297705903,0.9876241804441874,26757000000,
-0.049254561495949395,1.0956456052095624,0.9874985085419824,26762000000,
-0.02336906130250893,1.0898080028924502,0.9873319148096316,26767000000,
-0.0552150290877183,1.10100301036107,0.987113722723768,26772000000,
-0.08238532540552965,1.1152079390078182,0.9873008471919641,26777000000,
-0.06876543715655956,1.1091702203010787,0.9875374667890285,26782000000,
-0.07379490586279125,1.1175500112950563,0.9879757831470632,26787000000,
-0.10015863636680294,1.0995003913452956,0.9872481681375943,26792000000,
-0.050579309015581664,1.091938780976337,0.9874869577336141,26797000000,
-0.03771479934359591,1.0980726457145629,0.9870837445621953,26802000000,
-0.08089465414045838,1.0979637384603815,0.9871083903715099,26807000000,
-0.09860659486792768,1.092195570221919,0.9874439967538297,26812000000,
-0.08268324810604961,1.1190040143541586,0.986549193473498,26818000000,
-0.088944488597969,1.1051843612334158,0.9868224255330509,26823000000,
-0.03056140300620419,1.110982519570038,0.9867645665437218,26829000000,
-0.05256632446159068,1.1039081334758176,0.9867225536350411,26834000000,
-0.055819291233257344,1.1163180476437797,0.9867142443610024,26839000000,
-0.08882599681992392,1.084830173360482,0.9872470515815053,26844000000,
-0.08760383124617949,1.0782579649295685,0.9868522198437553,26849000000,
-0.09736645732340275,1.1002538511251976,0.9871066366264616,26854000000,
-0.06972520874915694,1.1103059809651101,0.9873534114216661,26859000000,
-0.09346975291989051,1.0895577732880573,0.9875694089741596,26864000000,
-0.07931683684322048,1.115486627227646,0.9874429135670854,26869000000,
-0.0830608233408844,1.1155623171771731,0.9879418835212956,26874000000,
-0.0610940105744804,1.1044623528367528,0.9879896588707097,26879000000,
-0.06687779889007893,1.1267879097884428,0.9878083150026087,26884000000,
-0.0895796395939462,1.0911018046312402,0.9877342288941917,26889000000,
-0.06745455949936677,1.1104149688034815,0.9879101977154942,26894000000,
-0.07409188756276375,1.117210970356851,0.9871291192299122,26899000000,
-0.42863138513310367,1.1298173026176728,0.9876065445434228,26904000000,
0.17766582138588047,1.1352028172011,0.9894484957306944,26909000000,
0.0865286359378345,1.1060864132654085,0.9906260338610278,26914000000,
-0.12556089325217742,1.1224138629509484,0.9906968930102911,26919000000,
-0.5042904044262044,1.1403241966867312,0.9912705396311664,26924000000,
0.15428525996840536,1.1076233211051842,0.9935135162988808,26929000000,
0.1275681170117923,1.1140999688308129,0.9946036414844621,26934000000,
-0.1547070044932986,1.1292990777411096,0.9940366396833076,26939000000,
-0.5561860140060808,1.1128060727552316,0.9962512570939932,26944000000,
0.40226924109460893,1.1569161818035498,0.9981604451961003,26949000000,
-0.12061926139158094,1.1236204655205801,0.9980171397366834,26954000000,
-0.5953619788259845,1.1395237182731417,0.9991464226961724,26959000000,
0.15197762297386797,1.110184911773023,1.0014318811345237,26964000000,
0.2249251458699681,1.076823890571625,1.0024263728670968,26969000000,
-0.5251073137945474,1.1186312901465472,1.0025612703128848,26974000000,
-0.24814525655668304,1.1085270142328367,1.0042654609317359,26979000000,
0.4394183329626161,1.1658198739074812,1.0050855160112016,26984000000,
-0.10495433981562421,1.1284609997575918,1.0050508259925814,26989000000,
-0.5583027934885548,1.1222227069034258,1.0060693414635404,26994000000,
0.2716713077197045,1.1320665656054412,1.0079353451123532,26999000000,
0.07516364208840565,1.1320072826044116,1.007082855089114,27004000000,
-0.6601170759323884,1.1355784332069752,1.0070453103076413,27009000000,
-0.12450886507412544,1.1082718568964707,1.0088456015633904,27014000000,
0.3773658041474408,1.174216826247504,1.0093211783624778,27019000000,
-0.43770444908627215,1.1497309186535412,1.008370148752584,27024000000,
-0.17261448657182857,1.118127808489353,1.00976739903,27029000000,
0.31200954248908,1.164551683580064,1.0104741627966158,27034000000,
0.004261291945166461,1.1613472380377377,1.0094259072554734,27039000000,
-0.6305250430258666,1.1464342226883733,1.010769426921862,27044000000,
0.38493777018545494,1.1458343318967918,1.0116145116103106,27049000000,
-0.06039379914429849,1.1389641113451228,1.0109426826612204,27054000000,
-0.7540841905213264,1.1422697236777657,1.0106568677650833,27059000000,
0.10435907932962532,1.1006731009495727,1.0128566221342277,27064000000,
-0.20710187805581115,1.1486869081135878,1.0113030967926413,27074000000,
0.299203313507514,1.1263352086266967,1.0121568768940243,27079000000,
0.005043686613187949,1.1148121598973069,1.0115026988917701,27084000000,
-0.5609713694661247,1.1735536445906325,1.0105904477231908,27089000000,
0.27861376865234333,1.1192032279386086,1.0100670998827568,27099000000,
-0.43231008207888827,1.1521434928246626,1.009307148688293,27104000000,
0.3877278450569864,1.100824395490361,1.010028627168609,27109000000,
-0.0602986092769056,1.1549801990238875,1.0089586613246426,27114000000,
-0.041546836872875734,1.1598404901223538,1.0071761367265117,27119000000,
-0.6260553256003393,1.1144301496189453,1.007411468156388,27124000000,
0.4050869599833877,1.1155686987396929,1.0079488101826763,27129000000,
0.026533886203502548,1.0957074641848021,1.0067053320301176,27134000000,
-0.14034698225909142,1.1400318477562463,1.004840498020575,27139000000,
-0.59754013283224,1.1330975727810266,1.0045825214394206,27144000000,
0.42243515096854983,1.105374773304009,1.0044702898258713,27149000000,
0.028478679416238353,1.1400094887431382,1.0038437839876173,27154000000,
-0.09842089081797573,1.1437880498320097,1.002126834470519,27159000000,
-0.06527604065530988,1.1328512263761585,1.0009766809075311,27164000000,
-0.06885833106222773,1.137400340337985,1.0000629959605438,27169000000,
-0.5361417615197189,1.1267973886398428,0.9997426245417008,27174000000,
0.5605613753388605,1.0777095439877442,0.9993746434857199,27179000000,
-0.2296149341400357,1.1834289331234709,0.9976577158294689,27184000000,
-0.1148990595837219,1.1170815816009194,0.9964448303652712,27189000000,
-0.047598827767779225,1.109307114900487,0.995881171698204,27194000000,
-0.06290492799219154,1.1195251778464481,0.9948090315337361,27199000000,
-0.08286682930936297,1.1236660855950638,0.9941986284180712,27204000000,
-0.06637934217669318,1.1301742200199365,0.9935072784084387,27209000000,
-0.03772055147039246,1.1018285617488384,0.992115985450587,27214000000,
-0.07449624964664786,1.1509222029555302,0.9912986151188242,27219000000,
-0.07494328613922,1.150959680899025,0.9903518189621837,27224000000,
-0.09203587041820872,1.1175703795763008,0.9898832858392443,27229000000,
-0.04036111568328986,1.1180509325986001,0.9887162605803602,27234000000,
-0.052939039359951326,1.0538021729125195,0.9881685678329339,27239000000,
-0.04984599761683615,1.1641421693073377,0.9874233303917613,27244000000,
-0.0622797387398746,1.0528040253351916,0.9868420950109567,27249000000,
-0.07746037070639317,1.1520128700221857,0.9864273228852134,27254000000,
-0.04508529805590291,1.1207928884129352,0.986031130629757,27259000000,
-0.0551472819583761,1.1495492130986638,0.9852086233433742,27264000000,
-0.07339984749106243,1.051593139477095,0.9849857371238001,27269000000,
-0.04683222253641933,1.0761054624073434,0.9847714486333183,27274000000,
-0.013236742799351053,1.1178468380032947,0.9840897573295904,27279000000,
-0.043187908672449746,1.1022449880928775,0.9838125177215103,27284000000,
-0.05369888688067311,1.097220033371808,0.9830862888150036,27289000000,
-0.05189698115496674,1.0969991649842596,0.9826181315230628,27294000000,
-0.03208629675549472,1.067095330508821,0.9826023215200659,27299000000,
-0.06670938428445508,1.0903058356640172,0.9822666891162268,27304000000,
-0.039650261786354474,1.1185582978168225,0.9818950633539201,27309000000,
-0.025217896033315815,1.064069689946044,0.9817836486329741,27314000000,
-0.0723683120128721,1.0712756053565433,0.9816188497333072,27319000000,
-0.046966981562493924,1.0870107070154118,0.98124852607456,27324000000,
-0.017200789402468067,1.1485789198882899,0.9815198261007239,27329000000,
-0.06336142599409747,1.0408096045333848,0.9811971569614423,27334000000,
-0.04576256053639872,1.1071160513794298,0.9814247654449376,27339000000,
-0.054186955652292534,1.0418230174663718,0.9806364993166963,27344000000,
-0.02453748805679233,1.0769364203028033,0.9809760918453465,27349000000,
-0.056270165220961454,1.0908066788207844,0.9808435318791583,27354000000,
-0.013737946256647992,1.0969109680531206,0.9810978396796713,27359000000,
-0.1268142746703116,1.0672793023083305,0.9805621682550645,27364000000,
0.06855492532307969,1.0862959766128892,0.9815962679240432,27369000000,
0.13272840222521318,1.1135760075270533,0.9818225218998732,27374000000,
-0.12478311947220881,1.0396139207439443,0.9824214975596771,27379000000,
0.01363278356462274,1.1295894237578636,0.982447486007208,27384000000,
-0.012146098714902678,1.114453726355434,0.9831636066928137,27389000000,
0.016859930645802865,1.1166049652186076,0.9833093456344807,27394000000,
-0.02749598084915433,1.0510223718765412,0.9839850184770476,27399000000,
0.04035596838566216,1.0856681512120099,0.9848050837446232,27404000000,
-0.006274443544019582,1.071430744818598,0.9852908684969415,27409000000,
0.010263757646486075,1.0727720848558675,0.9859206639032263,27414000000,
-0.004709368768264375,1.1111387739964882,0.9869745848033289,27419000000,
0.03495086318613125,1.1041037557176059,0.9873706965910568,27424000000,
0.033137495975071846,1.087044624527401,0.9880191922666647,27429000000,
0.018446753376511037,1.1106799044277527,0.9884214220663143,27434000000,
-0.024214596500232288,1.1065205160826082,0.989229022624261,27439000000,
-0.04304030108677197,1.0560552543971153,0.9891071856333572,27444000000,
-0.007489727673898546,1.1017496212810238,0.9888743272520848,27449000000,
0.015534179038635328,1.1341840419419016,0.9892912864984867,27454000000,
0.013392300684441041,1.115267967329169,0.9890571778581773,27459000000,
0.029508203234932737,1.060608311055096,0.9889612871907167,27464000000,
-0.013131022112323976,1.0652720280778722,0.9890235362859342,27469000000,
-0.0014657825997195506,1.1026146133888373,0.9883225618925113,27474000000,
0.009717102269322472,1.1130420788877338,0.988463041502131,27479000000,
0.016738430098135748,1.0705430550731139,0.9883207814968278,27484000000,
-0.0015596466560573626,1.0933644658673627,0.9881816793078567,27489000000,
-0.0008751845552610396,1.093339602662979,0.9877291889884094,27494000000,
-0.0032523952515942714,1.1169300107246531,0.9873608353885276,27499000000,
0.020555890771593407,1.0777318491838663,0.9876534150520253,27504000000,
0.04185377341775817,1.0917830633857823,0.9875381177690178,27509000000,
0.018893825012605586,1.0845281321833258,0.9872726629906039,27515000000,
0.06730963880485671,1.0946013880847738,0.988085601965255,27520000000,
0.032573153972347765,1.1127595442178382,0.9878538133864723,27525000000,
0.03382177029147544,1.118385340591013,0.9876007166793866,27530000000,
0.06412938457109585,1.078993896665913,0.9874906806551642,27535000000,
0.02659417773451109,1.095886390019794,0.9880112632944535,27540000000,
0.056014993577991945,1.1052821323010031,0.9876239184085929,27545000000,
0.0392417329830871,1.097959837047694,0.9876505857406905,27550000000,
0.02926386721381336,1.0944109603234926,0.9876649315250717,27555000000,
0.031809216926123506,1.1187561956737075,0.9870760794405536,27560000000,
0.06846189274378707,1.098155799546872,0.9873255628330868,27565000000,
0.03706637454036302,1.0906125165718157,0.9876237559932864,27570000000,
0.06623973661550721,1.1095034597823183,0.9870667012142218,27575000000,
0.042317882933368564,1.0970269984868801,0.9871178750384704,27580000000,
0.04310698031113143,1.1339420290609201,0.9866957028288447,27585000000,
0.06355658287419264,1.0988292098473127,0.9865430733439479,27590000000,
0.040450299453364695,1.0882573163554115,0.9859096419610356,27595000000,
0.05837164566315682,1.0824580945858597,0.986069690895757,27600000000,
0.019070690924443752,1.1120243462363946,0.9860319518726205,27605000000,
0.04823516764643031,1.1058057109386374,0.9863269409655765,27610000000,
0.05746087689925804,1.0964002523250762,0.9858785877550803,27615000000,
0.08126044914972029,1.120080033769248,0.9863475770429305,27620000000,
0.05348122065551863,1.0939552409087752,0.9862129516833481,27625000000,
0.05267265430898196,1.0862272338355705,0.986720028544249,27630000000,
0.0753278276645352,1.081250158850693,0.9865347390440337,27635000000,
0.040998268999091675,1.0725294240302505,0.9869698516635701,27640000000,
0.07838792176336741,1.1038630163745646,0.9866336828484599,27645000000,
0.08445295119562965,1.0582508801062576,0.986510136271677,27650000000,
0.0727884857878908,1.0836275735388656,0.9867027666982777,27655000000,
0.06931606054416733,1.0533837158905683,0.9860244369748512,27660000000,
0.09780145438537811,1.0985019357911872,0.986393117631487,27665000000,
0.08134346972988461,1.0905210922419624,0.9864383185715747,27670000000,
0.08901492640617069,1.085905915352247,0.9860487946964582,27675000000,
0.06861608999832144,1.092480587540907,0.986016441704399,27680000000,
0.07899930754269323,1.0972052640213823,0.985934523540557,27685000000,
0.054844611493232484,1.0978570021021354,0.9858662187687908,27690000000,
0.09994704611705779,1.0833703000055717,0.9856403080573792,27695000000,
0.09133421875183177,1.0742596522813472,0.9852465055729087,27700000000,
0.07999035404867424,1.0818680068481563,0.9853743721811892,27705000000,
0.0740144403844316,1.0813184659793798,0.9853442137955502,27710000000,
0.10303815694856541,1.0820866590616367,0.985397374838104,27715000000,
0.06950185895359728,1.0740668588989866,0.9853103590382809,27720000000,
0.10921499929136137,1.0729616235335848,0.9855856202986164,27725000000,
0.07961201252060868,1.0847984762876568,0.9853271214730609,27730000000,
0.10749345898278087,1.0956153864403653,0.9855083975665756,27735000000,
0.11015971843709764,1.1147173883712342,0.9854209556782231,27740000000,
0.11551893539075155,1.0710859322184263,0.9853737476919291,27745000000,
0.120153998621787,1.0819573139665593,0.9856411444911667,27750000000,
0.09928284621224213,1.063139675773436,0.9855575075843684,27755000000,
0.08849958123692063,1.0820606065018346,0.9861722682212313,27760000000,
0.09367569511768643,1.0753405642829663,0.9858631760846323,27765000000,
0.09808837970441464,1.1005740186766848,0.985698713024997,27770000000,
0.12119227575791444,1.061458093643547,0.9858727688163929,27775000000,
0.120795277297214,1.096676987179032,0.9853004107139232,27780000000,
0.08439100873127625,1.0948077099196758,0.9850663115226018,27785000000,
0.11271668661436517,1.104422449975198,0.9849817693878651,27790000000,
0.09065587482624451,1.1106785374713244,0.984750358282257,27795000000,
0.11057269705142014,1.05416627449091,0.9850475602749197,27800000000,
0.12126519293706547,1.1035550100562277,0.9843736382653003,27805000000,
0.10514853385821463,1.068137424426621,0.98452563384035,27810000000,
0.15293245531189137,1.0759345108927296,0.9847145310740598,27815000000,
0.1372643914881277,1.0961343911809756,0.9849750566947649,27820000000,
0.0847489795060358,1.0844486252606755,0.9845080568281813,27825000000,
0.11999162246458113,1.0737948267910515,0.9851334372066856,27830000000,
0.13894984595005916,1.085095862026551,0.9849458251454981,27835000000,
0.1266164189563157,1.0625384235809423,0.985186705534584,27840000000,
0.09117707383153797,1.0996655768596886,0.9853103749074433,27845000000,
0.13236983469178196,1.0851080318414708,0.9855676329628908,27850000000,
0.12325254574209803,1.1052949184606151,0.9857435402386094,27855000000,
0.10453859782576169,1.0934657898799824,0.9864935185289144,27860000000,
0.10621015587935333,1.0705789509509933,0.9863316316599272,27865000000,
0.1495814146273392,1.0812872766911061,0.9868063011982655,27870000000,
0.12093473991043253,1.0985085517470945,0.9870824723187259,27875000000,
0.096158661138399,1.0837101139382106,0.9873092703956771,27880000000,
0.10921785419958405,1.0680798143434116,0.9878757974711089,27885000000,
0.08654260824698357,1.088930627594327,0.987984860385568,27890000000,
0.12719350781441008,1.1106800640067944,0.9882895614603278,27895000000,
0.14883796327994225,1.0796124379670629,0.9880212444553301,27900000000,
0.1341125754389329,1.0792653942520323,0.9890482319163014,27905000000,
0.1284806587941319,1.0639954226732373,0.9895015529392714,27910000000,
0.14635921339381824,1.0599814837586399,0.9896525102179171,27915000000,
0.1668951770241166,1.081479976643113,0.9893583714990181,27920000000,
0.15499648896687274,1.0880242261907296,0.9900597186796827,27925000000,
0.13803527882698063,1.1060060654247041,0.9902902583781704,27930000000,
0.14798774858740005,1.0925173324717685,0.9904328911740258,27935000000,
0.1540279967123537,1.1063489293194095,0.9912965409328697,27940000000,
0.13488040687296377,1.084977761756929,0.9914868052573053,27945000000,
0.13249977352914977,1.0797273825978682,0.9917194416656651,27950000000,
0.12471982389409106,1.0806177750518715,0.9918506237330817,27955000000,
0.13715235981896162,1.1039006692027693,0.9921985531560634,27960000000,
0.136939141202119,1.0848824332247542,0.9921178964694322,27965000000,
0.13609988309687363,1.1040421886187064,0.9924537806044512,27970000000,
0.1481566325711664,1.0801755286869352,0.9929433033152559,27975000000,
0.13616971256669522,1.098885385129386,0.9929715601554172,27980000000,
0.16529436950943455,1.0846373709504558,0.9937274145553354,27985000000,
0.15155485372110494,1.0935435277325318,0.9940144978956613,27990000000,
0.08987917744467372,1.0773900623216495,0.9943432212143989,27995000000,
0.13598496682818034,1.079072982172621,0.994541063130689,28000000000,
0.1380306675586721,1.0893321474279594,0.9947007244381683,28005000000,
0.10473958496719257,1.1176114152787509,0.9952370619419961,28010000000,
0.09925682236134328,1.110521121933684,0.995403203807876,28015000000,
0.1444287749920316,1.0803248660737657,0.9955748998407608,28020000000,
0.13282008716415858,1.090022124057925,0.996102336900878,28025000000,
0.1282164606761271,1.114662684476477,0.9956540367525409,28030000000,
0.12461621547607049,1.085837732907751,0.9959672437564792,28035000000,
0.15408860001487024,1.107287963183349,0.9963884160742056,28040000000,
0.12131726856083222,1.1370178836094154,0.9963865729566649,28045000000,
0.15938071693532024,1.1014779850686807,0.9964567234006944,28050000000,
0.13716296838504427,1.072898205300727,0.9964184115938063,28055000000,
0.1212655140589751,1.1316667520878647,0.9966788262010922,28060000000,
0.1210734208729446,1.0715302832714937,0.9966202264939332,28065000000,
0.13153361632420535,1.1039418015167146,0.9966206152656241,28070000000,
0.12858680588588323,1.1078715070984677,0.9965420640489392,28075000000,
0.14087341265848535,1.0844616090075974,0.9967879070349505,28080000000,
0.14898623548898945,1.0738873668331304,0.9971543070863186,28085000000,
0.14798180854008022,1.0897310896590928,0.9971882008248658,28090000000,
0.1525778064340896,1.0539850405481468,0.9972431522999645,28095000000,
0.1627101712768681,1.0925176522480937,0.9972530880440946,28100000000,
0.16726479193000962,1.0644146773438037,0.9974029549676376,28105000000,
0.13092711371181026,1.0783682488664716,0.9972423226818541,28110000000,
0.16869063838767176,1.0585176491971036,0.9976373905131399,28115000000,
0.13982760442861591,1.105549342828084,0.9981307482908189,28120000000,
0.15664788511879363,1.1156759765643685,0.9978700216329914,28125000000,
0.12002202046794963,1.1248037886982243,0.998050766474958,28130000000,
0.16581345163046343,1.0918500822697437,0.9976749951518596,28135000000,
0.11075735028613982,1.082351472043911,0.9977339792763211,28140000000,
0.14692881303760522,1.1218742528645538,0.9972855535447975,28145000000,
0.1730480543839893,1.1230890039052561,0.9969619364196387,28150000000,
0.14362066242035937,1.0952222681973691,0.9971808675346964,28155000000,
0.13803038586135552,1.0940848952723756,0.9965442442882404,28160000000,
0.14440224906870147,1.1212506819152646,0.9966028179458813,28165000000,
0.14370031933642013,1.108884314693856,0.9962604894817538,28170000000,
0.13494399579989247,1.101869846672207,0.9961146298079037,28175000000,
0.16231922896937445,1.1012764413191931,0.9956635208801777,28180000000,
0.15365675179378227,1.1081685033797986,0.9959535625560746,28185000000,
0.15711865689012186,1.1019601276342863,0.9956710987208772,28190000000,
0.07012762039450418,1.114270907957296,0.9973152675197511,28195000000,
0.21147613768280996,1.1221348370668311,0.9975553227916372,28200000000,
0.16999094820095575,1.0673180492003052,0.9976154951317191,28205000000,
-0.3299331781324294,1.1298310741331508,0.9993930124118873,28213000000,
0.7014624364650262,1.156587533663259,1.0001907454925443,28221000000,
-0.002004824202143922,1.0995407921352383,1.0020560968331542,28227000000,
0.46321802715442245,1.1302270398979672,1.0035673437844428,28234000000,
-0.19281080857668698,1.060336598469567,1.0037796752231307,28239000000,
0.36202483164483906,1.1704843373931146,1.0057176685021691,28244000000,
0.3090412048466578,1.1197788584674935,1.005431797156755,28249000000,
-0.351900705553052,1.063242450334839,1.005537948953161,28254000000,
0.38960655248718545,1.1902372383523558,1.0074036023112967,28259000000,
0.36304687195215857,1.1497546795937705,1.0072502635945886,28264000000,
-0.35230542704338347,1.0476348505238313,1.0076445914978387,28269000000,
0.41739856498452654,1.1691063059951543,1.0087652004866627,28274000000,
0.3287436794905407,1.1114802510344972,1.0088862480491931,28279000000,
-0.37713252632980354,1.0797007123933609,1.0087805505384255,28284000000,
0.4395950320965653,1.139129946364542,1.0105619293976424,28289000000,
0.2690055667032819,1.1247250169610568,1.010511689855639,28294000000,
-0.3168819975792465,1.1024127529685608,1.0105012342450777,28299000000,
0.458165996184574,1.150647532423527,1.012158791103056,28304000000,
0.2694487295727539,1.1364768645472594,1.0123866958011356,28309000000,
-0.23238684465725343,1.1299879072202434,1.0115277381092669,28314000000,
-0.02218059017441056,1.1204276568255735,1.0132953188628908,28319000000,
0.4166151363391595,1.1138056521755184,1.0120835246455526,28329000000,
-0.5678099963293439,1.1269846903664809,1.012680924470888,28334000000,
0.5785060400241976,1.1053397864683767,1.0124417782334718,28339000000,
0.235133022064937,1.114447292599949,1.010955260347488,28344000000,
0.11732893948881115,1.1433273881713606,1.0100681448091673,28354000000,
0.21230656237639134,1.109842621219807,1.008654920347909,28359000000,
-0.4239300631093329,1.1412213849930988,1.0080645468275966,28364000000,
0.5773655140119679,1.0674627345945198,1.007878850243986,28369000000,
0.2432246659336705,1.1402607035400283,1.007170517792764,28374000000,
0.13435585733082456,1.148461159805423,1.0052719927346911,28379000000,
-0.4256170620501596,1.1381017151599826,1.004436813002985,28384000000,
0.674758660965131,1.0957539052373897,1.0039705404019394,28389000000,
0.1519545716050605,1.0808915866800635,1.0025722614207602,28394000000,
0.09996241710873353,1.1218238353369743,1.0005357687530119,28399000000,
0.10643667676156793,1.1100682155842498,0.9993369830612218,28404000000,
0.13637071678988777,1.1470894913029286,0.9979798024977999,28409000000,
0.07762440608817564,1.0970683943710298,0.997617223079751,28414000000,
0.16687088637808561,1.107235821428795,0.9965257597185391,28419000000,
0.10740878656583064,1.0821214564407018,0.9953193108950006,28424000000,
0.12274508491416666,1.0474789880739783,0.9939357981366588,28429000000,
0.13559954143000238,1.1028664930392953,0.9927423778349398,28434000000,
0.1221683874354571,1.118787787706052,0.9912816651745995,28439000000,
0.106512169602451,1.127596886370004,0.9902349063197106,28444000000,
0.1139965632511031,1.0605573640924322,0.9892722172803108,28449000000,
0.15774214948690296,1.111109781338144,0.9883284435604951,28454000000,
0.12051684688003748,1.171837880357993,0.9870796268762315,28459000000,
0.10950392007436603,1.1186614019729089,0.9866189618902877,28464000000,
0.1389545606189476,1.1241299532395912,0.9861318939116412,28469000000,
0.15327558745681163,1.132927356337612,0.9852628206684853,28474000000,
0.074886623809661,1.0127263972456833,0.9849103609714691,28479000000,
0.13058778537964616,1.036263570474758,0.9848751314305106,28484000000,
0.14962028312968795,1.047782427184648,0.9850013503249102,28489000000,
0.11528303991888128,1.0661823355068558,0.9855224038670937,28494000000,
0.08266301671257119,1.0741256112208522,0.986166623834822,28499000000,
0.11906314916247059,1.054411177206609,0.9865093024800806,28504000000,
0.09850853306424091,1.0701311142757532,0.9873161408291078,28509000000,
0.16053741302277308,1.1103414393087745,0.9885878827565705,28514000000,
-0.29170400914278716,1.0774648215937475,0.9893735508089536,28519000000,
0.6259223615124552,1.1316894619480264,0.9912866455605237,28524000000,
0.017907324574799065,1.1141361533754528,0.9919251013452686,28529000000,
0.0923325203320623,1.109215308073397,0.9924131775183167,28534000000,
-0.31330104186990504,1.091250687719425,0.9933613277056688,28539000000,
0.5078402758616181,1.12601985579342,0.995634372233314,28544000000,
0.3622074238010781,1.0936233537383757,0.9956795720876899,28549000000,
0.010786135246753037,1.0948596934161854,0.9956669740167303,28554000000,
-0.45575417487105324,1.045677036776353,0.998103494395808,28559000000,
0.719813856471531,1.1634768750106952,0.9989097174211065,28564000000,
-0.002339387571988382,1.1239922854368092,0.9992421280144116,28569000000,
-0.6254119632944526,1.0801898061149533,1.0004049310095167,28574000000,
0.5296151640438838,1.1185347693380554,1.0028510272173046,28579000000,
0.06809617214110043,1.1504881876756312,1.002434780229785,28584000000,
-0.4430809468524257,1.040937916449082,1.004645653392795,28589000000,
0.8926640945824867,1.1578629177416977,1.005765229694957,28594000000,
0.027803338082989505,1.1528067902351153,1.0052221591297759,28599000000,
-0.6566095232790855,1.055397372752601,1.0074161808894813,28604000000,
0.5427443628007327,1.128820502916537,1.0085644892033478,28609000000,
-0.48738337981853513,1.0888405962597654,1.0094033942250467,28614000000,
0.49328030142471496,1.1631289099641475,1.011411120971174,28619000000,
0.21393447319230566,1.1570288208527495,1.0109855453037002,28624000000,
-0.48927385668470674,1.0734710676507297,1.0128588051303837,28629000000,
0.6538772499772991,1.1883165187495115,1.0142057621587808,28634000000,
-0.38045500567500223,1.1145475625931631,1.0140098259903825,28639000000,
-0.024035077225710383,1.1026354222431776,1.016006984087549,28644000000,
0.628229318980789,1.1765394034111227,1.0170525915086448,28649000000,
-0.3758269430159767,1.135564624573403,1.0167332588550775,28654000000,
-0.01386346497432674,1.0789622456871,1.0188060206955478,28659000000,
0.6054181761618181,1.1740845816724423,1.020750309205376,28664000000,
0.13455007575400965,1.1563870111078849,1.0199378753983355,28669000000,
-0.5507362860138858,1.0736983368043724,1.0213875793297844,28674000000,
0.5737169424375075,1.1850642712248762,1.0238304047609554,28679000000,
0.17621825542480907,1.1652034277146932,1.0229018462350954,28684000000,
-0.5460252714501114,1.0279823903755434,1.024083950246321,28689000000,
0.0704802182142801,1.1157851152605724,1.0260111583473153,28694000000,
0.6534383206963297,1.1990827465715568,1.0252374177469228,28699000000,
-0.570128639967471,1.0917860399849382,1.0258467193808631,28704000000,
0.12612909552556645,1.1432451204089757,1.027975785847297,28709000000,
0.6655759064571071,1.2136300997633478,1.0262456177884167,28714000000,
-0.5685925597744007,1.0951181931987723,1.0272177194852223,28719000000,
0.5945636168355443,1.1779829830380781,1.0284666354339485,28724000000,
0.17179119872242138,1.1732231158563742,1.026678972697936,28729000000,
-0.596717402470144,1.11273061263586,1.0273167725151593,28734000000,
0.624069689013094,1.162206538557765,1.028581424093584,28739000000,
0.12684287861917093,1.1577519454466305,1.0268724851851994,28744000000,
-0.5833635093814029,1.073095993357589,1.027803806490072,28749000000,
0.6592363222915598,1.2282333503909377,1.0279626203241077,28754000000,
-0.31297443649548184,1.1240567983591812,1.0257874844612438,28760000000,
-0.08818671952922988,1.1019303284838229,1.0279048010026675,28765000000,
0.8035686042695237,1.1888834048677146,1.0276567981029288,28770000000,
-0.39310827557912076,1.0829728919548558,1.0262612746683073,28775000000,
-0.06362919560425745,1.1240194191970285,1.0275919676983092,28780000000,
0.6923646313598696,1.1951421681931564,1.0274287269548281,28785000000,
0.10187694099887523,1.1345515414853855,1.0253285159357715,28790000000,
-0.6354008885190443,1.100719614226734,1.0266808394100424,28795000000,
0.4319385103130129,1.1716301603722319,1.0249958985476328,28803000000,
-0.630697947113587,1.0910580958546923,1.0243503607839186,28808000000,
0.6417687664648279,1.1947118165313264,1.0251320940374928,28813000000,
0.09374644589554053,1.0926942943025495,1.0231071597851376,28818000000,
0.03544644231788906,1.1304479753916201,1.023241986375205,28827000000,
0.0908986192113993,1.1198745762223166,1.0209323567217086,28833000000,
-0.607887873221404,1.0693976509255618,1.0212604428816896,28838000000,
0.6009626643608857,1.1730635115005161,1.0208409359244284,28843000000,
0.05138150238554563,1.1338424564424194,1.019127854040604,28848000000,
-0.6233326578436508,1.0636976678603014,1.0194130047645138,28853000000,
0.5978594262309881,1.1883007826939276,1.0192845856989747,28858000000,
0.054975030224480095,1.1167121043293846,1.0175492630752507,28863000000,
-0.6298050254476114,1.1055606512001508,1.0181694499870149,28868000000,
0.5766768633885768,1.2038987108989483,1.0185724622861354,28873000000,
0.09137966182666678,1.1375675917655175,1.016850078608659,28879000000,
-0.010270931654508148,1.1462224123473574,1.0171225617710193,28889000000,
0.11422857496134337,1.151513277338052,1.0166952047132303,28894000000,
0.013376917477068505,1.1108926832925352,1.0142091730225657,28900000000,
-0.5671143145943305,1.0390962716778325,1.0162220521814938,28905000000,
0.5997381441862089,1.2007467716338245,1.0151393724154185,28910000000,
0.029582794742104283,1.1369616629153743,1.014040936773685,28915000000,
-0.6126196674940337,1.1111417118223912,1.0131347656862415,28920000000,
0.576420433203521,1.133214353486972,1.0139816817331877,28925000000,
0.023562564715540014,1.2330801296375768,1.011878897301561,28931000000,
-0.08868581558774458,1.0818385418587169,1.0078681204099116,28940000000,
0.10920837476488889,1.1266393363668985,1.0059234141873838,28945000000,
0.0012049550833165164,1.0871504254976565,1.003533690299212,28950000000,
0.020987887614007245,1.11513965692967,0.9986972674789666,28962000000,
0.01193246352671607,1.1013540252867131,0.9963739785661506,28969000000,
-0.019169392672206735,1.0959852853198004,0.9959204480564393,28974000000,
-0.015660198698862232,1.0871240691859445,0.9940822659303244,28981000000,
-0.0015448238232921123,1.0824238934946628,0.9929884433023399,28987000000,
-0.042238081026300375,1.0801071189271603,0.9925064461883237,28992000000,
0.016438772247893658,1.1188949599051523,0.9924619513365989,28997000000,
-0.005692253703629108,1.1208813261678021,0.9918143702242994,29002000000,
-0.000986085551102165,1.1048752494375906,0.9915503799104073,29007000000,
-0.022378775595828775,1.1204154421184782,0.990818844079125,29013000000,
-0.01606062912275479,1.1161873500401356,0.9907289939778696,29019000000,
-0.031478473211790994,1.096931606451296,0.9901469472900687,29024000000,
-0.09151325520566747,1.124579907365141,0.9897886169581378,29029000000,
-0.0559434573111139,1.0856036444511088,0.9893371214728113,29034000000,
-0.029588456133913227,1.1166427120120828,0.989190507081971,29039000000,
-0.0370999027054041,1.1332708759293628,0.9887246843093863,29046000000,
-0.027627520315066847,1.0957872314746684,0.988522322790219,29051000000,
-0.02509958477883929,1.1164698903457553,0.9883358246681754,29056000000,
-0.01859056780338856,1.0994122994253674,0.9882462953104996,29061000000,
-0.04661296210009257,1.0881650922651662,0.9883189058596475,29066000000,
-0.013229499868004597,1.096925246652051,0.988480371350128,29071000000,
-0.05158588016473166,1.0991840921814255,0.9879569074558886,29076000000,
-0.04926070472549659,1.1108104255905666,0.9884060261929013,29081000000,
-0.0701901446183897,1.0842539620900666,0.9886449371700191,29086000000,
-0.02836342396055026,1.0777448310221298,0.9885248968303402,29091000000,
-0.048963696248831096,1.1144672478150632,0.9882584249260428,29096000000,
-0.05408416191640897,1.1223531470767456,0.9881406991553922,29101000000,
-0.03637047864066688,1.0963391781278058,0.9883599738817921,29106000000,
-0.060868999102574345,1.1208936815410893,0.9880505829920337,29111000000,
-0.05877928166617092,1.072007243044299,0.9881210156624851,29116000000,
-0.08184638877641401,1.1021219474237596,0.9875217591185973,29121000000,
-0.06917158549540223,1.0960740359406211,0.989309912426954,29126000000,
0.07843676309662037,1.124911151893947,0.9893331332771176,29131000000,
-0.08030760663122499,1.1260293715279148,0.989304594031948,29136000000,
-0.5090895410838547,1.098708064663101,0.9904324068263877,29141000000,
0.305167515100651,1.1136798792191005,0.9925572184425968,29146000000,
0.07067976758460834,1.1206342594546772,0.9931285806901536,29151000000,
-0.058390482834216585,1.1533733742175918,0.9931025360015537,29156000000,
-0.4730838914229463,1.128095933920203,0.9947212345791653,29161000000,
0.3754965965278647,0.9948643569070297,0.9966092108603442,29166000000,
-0.06292235241714343,1.222007874886834,0.9971694138840543,29171000000,
-0.5743717759755975,1.1351368490614389,0.9974534134842774,29176000000,
0.22706637872591465,1.0747249325737802,0.9992692131870987,29181000000,
0.12729921888486087,1.1111412666527727,0.999771871585241,29186000000,
-0.5518758012288045,1.209593319283305,0.9997762339416663,29191000000,
0.24829926348053147,1.0936138260181991,1.0014732786961855,29196000000,
0.1611894262106252,1.1990042083383632,1.00136110165526,29201000000,
-0.6139800908542428,1.1325704117141215,1.00196335011777,29206000000,
0.22884581942392196,1.089739601169368,1.0039063985953343,29211000000,
0.13877049248467235,1.2214567519946662,1.0036172822253482,29216000000,
-0.5406410761620319,1.1531849576176159,1.0039327944871062,29222000000,
-0.09092068349456177,1.0982664372055326,1.0060664049125352,29227000000,
0.5191125763470935,1.1507078204566845,1.006610140244582,29232000000,
-0.5206971134026499,1.162165364285188,1.006042227871409,29237000000,
-0.21877760330544652,1.0891745418477297,1.007800796991603,29242000000,
0.3896562713722222,1.120685833481374,1.0087001975093157,29247000000,
0.07773160296929241,1.1892821968203158,1.0079425554740669,29252000000,
-0.6130662384290475,1.1319396061721132,1.0088321140648369,29257000000,
-0.06264954568097454,1.0781003047216375,1.009274894412041,29263000000,
0.2869264780209318,1.1507888478156059,1.0085696221307356,29268000000,
-0.7790734482037001,1.1289869348878327,1.0093775993745049,29274000000,
0.34698257147645944,1.058504748905089,1.0101402693649688,29280000000,
-0.09265098918211136,1.2178415180349698,1.0082678862748156,29285000000,
-0.5943613574470519,1.1021528739198025,1.0092706287740016,29290000000,
0.4301272590634941,1.1174651546044392,1.009590806270461,29295000000,
-0.04079837798753924,1.1538454593018412,1.0091566302383528,29300000000,
-0.5740189282176114,1.1425629702187847,1.0092185426836842,29305000000,
0.31268116416717656,1.1179765453932695,1.0100477599045408,29311000000,
-0.04741434870504368,1.1442695051112795,1.0089229937520077,29316000000,
-0.5730730685814613,1.1263495889693604,1.0088484806789983,29321000000,
0.44343775701532967,1.1204214481658565,1.00896733942007,29326000000,
-0.046999024364894636,1.14299523178812,1.0080012955419082,29331000000,
-0.5595066226417295,1.1435721556340757,1.0072702502130382,29336000000,
0.3535664337854521,1.0918960730053169,1.008242044691045,29341000000,
0.00818937888933158,1.1803240438504858,1.0060993293029123,29348000000,
-0.10441428617754926,1.1512620737229269,1.0050013455364566,29353000000,
-0.5408858268709795,1.0889504233452911,1.005711463563206,29358000000,
0.43722070631360127,1.0989778829156893,1.0062095368860289,29363000000,
0.04035958191417874,1.1413424119509248,1.0049928483005146,29368000000,
-0.07500766643175233,1.1313373055516145,1.0027499706770222,29377000000,
-0.41490257203435554,1.1377560506936435,1.0015573648609724,29382000000,
0.3408051350205775,1.0070272911830136,1.0019573006120652,29388000000,
-0.06960951671455043,1.2705076819565033,1.0004767553942182,29393000000,
-0.08888103768352461,1.1146076510932568,0.9983399843811562,29400000000,
-0.037968734245645036,1.0835951791085676,0.9981230190397831,29405000000,
-0.07786357873011399,1.108608766920426,0.9968534659554217,29410000000,
-0.05840712335196082,1.1207013984577872,0.995519407079432,29415000000,
-0.06303132322011798,1.0950383835519273,0.9947124379549235,29420000000,
-0.03897591369148216,1.094298265264759,0.9937637466523447,29425000000,
-0.08611150260882652,1.0808303573751412,0.9926859415430431,29431000000,
-0.0583307963938488,1.0979429090055202,0.9921315732128757,29436000000,
-0.07193634365119338,1.1294717695256615,0.9915454242415339,29442000000,
-0.020446255069665208,1.1243271139235071,0.9907054999583288,29447000000,
-0.04497766972991483,1.0963213199962125,0.9902290857228117,29453000000,
-0.046133908169233094,1.127423568663723,0.9894103837237728,29459000000,
-0.052262441521716704,1.0914454243091423,0.9889980812921463,29464000000,
-0.04209542430504402,1.0945899992312207,0.9887728890541249,29470000000,
-0.05204011527927592,1.1006244624641492,0.9875602798611157,29475000000,
-0.025352151386764506,1.0973744365064284,0.98662130212021,29480000000,
-0.010585024866468437,1.1072918961099238,0.9868477052297377,29486000000,
-0.012472344005971102,1.1074062744410789,0.9855470735851606,29491000000,
-0.0049989136429024646,1.1024268899226572,0.9852758538807701,29496000000,
-0.045806329196667606,1.1033927980669322,0.9847842237695088,29501000000,
-0.05051840619078593,1.119880711592294,0.9843969813077162,29506000000,
-0.0002606614666973532,1.0984850427047343,0.9838582464204483,29512000000,
-0.020001367632089418,1.0928656571766946,0.9836686210737392,29517000000,
-0.021901243005198266,1.1083531010015109,0.9831951734327808,29524000000,
-0.027258498417677357,1.1108079609149273,0.9831357131749852,29530000000,
-0.016788819554904834,1.1131245454745864,0.9833206931590751,29535000000,
0.015924064307314655,1.0911039373712448,0.9827449677262847,29542000000,
-0.12766768760339534,1.1354618673415655,0.982711995694207,29547000000,
0.13251915651840304,1.0757893223663522,0.9824063633354301,29553000000,
-0.004078257220964249,1.1045658608169615,0.9834527137305576,29558000000,
-0.09073342586045316,1.17588191663252,0.9833593650511969,29563000000,
0.08291963346870805,1.0451697191597544,0.9831861249511522,29568000000,
-0.01842258199968281,1.1758210708173913,0.9834300316555223,29574000000,
-0.006207204564570033,1.0707951913694134,0.9823897157176732,29579000000,
-0.04978865356511816,1.0790544157474264,0.9824212168035737,29584000000,
0.009025021995306057,1.0931789985122145,0.9820955823423965,29590000000,
-0.1922835708371387,1.0810775590711654,0.9858556711876041,29596000000,
0.42293332637586634,1.100008894618806,0.9870984417841064,29601000000,
-0.04004950873440168,1.0983518671094903,0.9874731009947243,29608000000,
-0.4854818085477054,1.1168604151996997,0.9890588082930539,29613000000,
0.5413131044616742,1.0831131057216534,0.9901458842502241,29618000000,
0.028313178992657985,1.1447506688096554,0.989786871649834,29623000000,
-0.041314581864498774,1.1146777891433755,0.9892068693296671,29628000000,
0.0013913532567389354,1.1053308476679653,0.9892167490984729,29634000000,
-0.7919464828530524,1.1220820934311937,0.9897097544705198,29639000000,
0.7133038186514907,1.034699301551383,0.9897121263950018,29646000000,
-0.11552097538965797,1.1084790523908212,0.9880668215276791,29651000000,
0.005425100887084628,1.1077136643814651,0.9876460467376185,29656000000,
0.026642120552127998,1.1035955704721392,0.9874106031400748,29661000000,
0.01856180741719682,1.0766057100361923,0.9867436503716952,29667000000,
0.02471934889570316,1.0939455925818005,0.9860396401848829,29675000000,
0.024240794308902455,1.083582738848948,0.9849225900975027,29680000000,
0.016042285501271784,1.0915717806514955,0.984344862062769,29685000000,
0.043092745545055613,1.1072667277386263,0.9837875947726371,29691000000,
0.04632701846175925,1.0467141226893757,0.9830606049384968,29696000000,
0.0437940338495585,1.0644791327172378,0.9823318337364592,29701000000,
0.013761638283981636,1.0823408680081215,0.9816278047724553,29706000000,
0.054908920351997986,1.0819782898279657,0.9801199284808415,29717000000,
0.021301151414183206,1.0949850983543685,0.979775887368031,29722000000,
0.045325779866196035,1.0634541720988155,0.9791151817048753,29727000000,
0.02263185880962424,1.1231196488816246,0.9782724281384567,29732000000,
0.030742557214006892,1.0829629669059335,0.9781539558457997,29737000000,
0.043376761591145806,1.0661377594526078,0.9777692409747362,29743000000,
0.06382650890116183,1.053961781453266,0.9773137999784995,29748000000,
0.033668765130885306,1.0900371390854888,0.9764612894683427,29758000000,
0.05041171310035767,1.0729222393656102,0.9759246968768013,29765000000,
0.03652633242446168,1.0264516720325652,0.9755902126016694,29770000000,
0.030167476720022478,1.1179965175862256,0.9754981363413165,29775000000,
0.04286581999779102,1.0557953308653354,0.9754130954158431,29780000000,
0.058226738061124904,1.104525455918618,0.9750455001912284,29785000000,
0.04362283673021325,1.0435051561446793,0.9748893579111164,29790000000,
0.060583394373831555,1.0694023062494629,0.9747146878433621,29798000000,
0.055312721049867605,1.0946317813584983,0.9740542653206288,29803000000,
0.07110806906842507,1.0426377855784557,0.9735930571269656,29808000000,
0.06215000056938895,1.0834053826367938,0.9738107834144205,29815000000,
0.057456691780391735,1.0600284883874418,0.9733290996495613,29820000000,
0.05498381796108067,1.0682043047736538,0.9734305557914378,29825000000,
0.07538530671662946,1.039284420774511,0.9733719212103963,29830000000,
0.052261624528907695,1.0813250811370851,0.9731279638610323,29835000000,
0.05181400350937879,1.0971662047858644,0.9726003878356094,29840000000,
0.05852744971671944,1.059221248285613,0.9727387547807674,29845000000,
0.08544550158209409,1.0888310095030072,0.9731179532222732,29850000000,
0.06641441725938108,1.0892198190048923,0.9727369846347588,29856000000,
0.07817787381637353,1.0930750275025363,0.9728883675862258,29862000000,
0.06850430797235263,1.0269656419584368,0.9731049066200641,29877000000,
0.07039619169635074,1.0570245724178542,0.973609027721877,29882000000,
0.08870498048676138,1.0100175817738053,0.974017314339194,29887000000,
0.08402059231429698,1.0484283619655155,0.9748547986569772,29892000000,
0.06915593182139772,1.0408196920457946,0.9753851206427193,29897000000,
0.06586412852694988,1.014665593897791,0.9758791886379357,29902000000,
0.065934566228586,1.0419061618554137,0.9778745278931725,29909000000,
0.06499049423746797,1.0973000173479808,0.9790680992879393,29914000000,
0.037071993277041755,1.118098812052952,0.9800745711114413,29919000000,
0.06367393406396385,1.1061121990581047,0.9813303530451607,29924000000,
0.0832347904459169,1.092049370007397,0.9820950102818609,29931000000,
0.08275251512505896,1.0683075780141038,0.9838088079008783,29936000000,
0.06370173845081219,1.1001658487149963,0.9844333164225828,29941000000,
0.07557201463562314,1.1131607521768974,0.9853823436839061,29946000000,
0.07879842105654962,1.0574864845549423,0.9860940773078876,29951000000,
0.09771621517514963,1.0582873947538396,0.9860132197296244,29956000000,
0.0827584993163109,1.0898414599388233,0.9870055469406895,29961000000,
0.06871286547586729,1.1181699320651923,0.9879020175673475,29969000000,
0.10230641493733607,1.07158758440729,0.9884719327386445,29974000000,
0.07089614409669527,1.0835792136680207,0.9891084288733908,29979000000,
0.09034921883279406,1.0689165500852116,0.9892876630682722,29984000000,
0.08818021117970387,1.068719762893566,0.989909364722378,29992000000,
0.09152696497713309,1.1312513972269467,0.9903308992129879,29999000000,
0.10151588608354528,1.0826571213602392,0.9908338638892962,30004000000,
0.09094300946560181,1.0828018293746167,0.9918437531449247,30009000000,
0.09693416099011384,1.1160302583730566,0.9915281916104993,30014000000,
0.10800390367788297,1.067637973118965,0.9925739948038755,30021000000,
0.088917739322245,1.1111450602624957,0.9929065125934508,30028000000,
0.09469235091768573,1.07846494930642,0.9931918004044968,30035000000,
0.07272134428551992,1.0888617534960174,0.9939719638843133,30041000000,
0.1024897171831778,1.0890034526514807,0.9941255827564889,30046000000,
0.08320185917767672,1.090651377546199,0.9942901611187154,30052000000,
0.0899474106084252,1.0876825950604179,0.994600361290672,30057000000,
0.10455777892557783,1.1014516434395214,0.9945212895566509,30063000000,
0.11001852083413502,1.0776223246147245,0.9950103636424308,30068000000,
0.11978737208952697,1.10650746732041,0.9948261051471685,30073000000,
0.08986911619636645,1.081344033428653,0.9949653606919852,30078000000,
0.07082667077704284,1.0965930003047863,0.9952232560264029,30088000000,
0.1235036457223194,1.1265085900929148,0.9953612410080802,30093000000,
0.06657908935908748,1.1047643520136676,0.9955650901357788,30098000000,
0.07329128591084853,1.099402876025786,0.9959737080736636,30103000000,
0.12346523938963064,1.1303310572303413,0.9960792473804818,30108000000,
0.10294603129307936,1.0957739547997856,0.9962320461695513,30114000000,
0.10597076479319728,1.0636127933449193,0.9966968224706485,30119000000,
0.07230616249987648,1.1144292960738003,0.9970985609751388,30126000000,
