acc_x, acc_y, angular_z, stamp, 
0.46633684635162354,0.6277016401290894,0.5443905858712472,1696619068741614194,
-0.24412792921066284,0.3580849766731262,0.775936142438284,1696619068750490581,
-0.7882187962532043,0.04860025644302368,0.7602460955354916,1696619068760520211,
-0.33142828941345215,0.12951570749282837,0.9125812926231427,1696619068769561373,
0.4524472951889038,0.24741023778915405,0.791129021767579,1696619068780593549,
0.46334701776504517,0.18749797344207764,0.906622900629176,1696619068790603966,
0.07887178659439087,0.1632952094078064,1.051318895583326,1696619068799566420,
-0.15312308073043823,-0.018317759037017822,0.9903131852739452,1696619068809567480,
0.08565062284469604,0.14645540714263916,0.8444694940240994,1696619068821959046,
0.20332038402557373,0.36645007133483887,1.4475464998396586,1696619068829572174,
0.1468866467475891,0.3212854862213135,1.044005017401694,1696619068840675649,
-0.18137425184249878,0.3021644353866577,1.2185920642610957,1696619068850688229,
-0.4503862261772156,0.6199772953987122,1.2859842656865246,1696619068860633817,
-0.1809372901916504,0.4176279902458191,1.3312569339490474,1696619068870636091,
0.0528067946434021,0.45572417974472046,1.3769786822956611,1696619068880697520,
-0.1717292070388794,0.45281171798706055,1.4444777947756688,1696619068890762344,
0.1122516393661499,0.30975043773651123,1.3133751686109154,1696619068902376734,
0.02826082706451416,0.032821059226989746,1.8989047496592297,1696619068910691127,
-0.08283430337905884,-0.2716548442840576,1.604065054932478,1696619068920753830,
0.2220274806022644,-0.10008114576339722,1.6455220044801628,1696619068930778511,
0.21244043111801147,0.3957059979438782,1.697353186473226,1696619068940725824,
-0.19945824146270752,0.44239282608032227,1.7280270214694402,1696619068950756547,
-0.41632628440856934,0.17926979064941406,1.7730132230451334,1696619068960855678,
-0.0709729790687561,0.6227371096611023,1.88036032593807,1696619068970756566,
-0.17985236644744873,1.085351824760437,1.7641874732438572,1696619068981732962,
-0.20865601301193237,0.532526969909668,2.1947425803832323,1696619068990831709,
-0.35585981607437134,-0.31319403648376465,2.01722182334138,1696619069000949953,
-0.27496856451034546,-0.2424560785293579,1.6202873516952467,1696619069013698905,
-0.14550429582595825,0.48720306158065796,2.890094895858707,1696619069020819077,
-0.27175354957580566,-0.06768369674682617,2.0193102240659084,1696619069030914962,
0.026226460933685303,-0.8135519027709961,2.0393193790207684,1696619069040884129,
-0.14716660976409912,-0.14246660470962524,2.03846604438018,1696619069050858775,
0.13353168964385986,0.6808328628540039,1.7809883608944768,1696619069062217297,
0.07754546403884888,0.13319945335388184,2.3187272482560095,1696619069070888081,
-0.17004024982452393,-0.44433581829071045,1.9639551840872551,1696619069081149467,
0.3320125937461853,0.2578127384185791,1.563319170186292,1696619069094075594,
0.30160391330718994,0.1668592095375061,2.9355643349912577,1696619069100885856,
0.6872332692146301,-0.3856682777404785,1.9510551390750823,1696619069110948165,
0.29073983430862427,-0.003819108009338379,1.9333375779094475,1696619069120950376,
-0.012926220893859863,0.31329500675201416,1.9137045571307374,1696619069130940413,
-0.26815176010131836,-0.17164570093154907,1.7760170565306421,1696619069141635474,
-0.4719654321670532,0.05006098747253418,2.035279625024126,1696619069150953702,
-0.1451495885848999,0.548000156879425,1.8876227879049678,1696619069160994741,
0.05249077081680298,-0.006892204284667969,1.4586232061423152,1696619069173988816,
0.4951895475387573,-0.009912431240081787,2.691971727076168,1696619069181043067,
-0.06541889905929565,0.5523093342781067,1.8930078863861057,1696619069191093880,
-0.06044727563858032,-0.5286990404129028,1.8465333693559587,1696619069201394638,
-0.2133210301399231,-0.054106175899505615,1.9474600328075682,1696619069211204158,
-0.15127158164978027,0.2629970908164978,1.754574673566035,1696619069222134133,
0.044398367404937744,-0.1051906943321228,2.1445018014454993,1696619069231042290,
0.15833818912506104,0.21483564376831055,1.8654751994577141,1696619069241268886,
0.06083756685256958,0.6187220811843872,1.5105047296276057,1696619069253947357,
0.07447844743728638,0.1485438346862793,2.6945971138176366,1696619069261077887,
-0.1888798475265503,-0.19676709175109863,1.919963217180215,1696619069271091372,
-0.29580992460250854,0.6239637732505798,1.9151157409182045,1696619069281115357,
-0.31733614206314087,0.2703118324279785,1.9038291854903462,1696619069291151760,
0.15997040271759033,-0.3380693793296814,1.8162152089797905,1696619069301644728,
0.026060640811920166,0.17700093984603882,2.0151881506154106,1696619069311132822,
0.08107352256774902,0.1719180941581726,1.909606943703503,1696619069321181361,
-0.09787178039550781,-0.22589647769927979,1.525577696693483,1696619069333776064,
-0.21395361423492432,0.1535521149635315,2.5899579880750627,1696619069341179821,
-0.24202239513397217,0.4051930904388428,1.90099490016618,1696619069351205094,
-0.4967508316040039,-0.1611795425415039,1.8862908112663612,1696619069361247184,
0.24534690380096436,0.33891743421554565,1.8918316238615056,1696619069371238971,
-0.14823246002197266,0.5793898701667786,1.7704832870582154,1696619069381933301,
0.2436332106590271,0.1618187427520752,2.0431196049768285,1696619069391221114,
-0.015793323516845703,0.1235552430152893,1.9032356608962377,1696619069401233107,
0.0669052004814148,0.4799332618713379,1.4844296927640566,1696619069414107389,
-0.45096129179000854,0.04371368885040283,2.666293529702922,1696619069421274938,
-0.7278627753257751,-0.27003008127212524,1.9043083359960937,1696619069431309160,
0.026245594024658203,0.2705671191215515,1.9056701698270533,1696619069441341507,
-0.1356382966041565,-0.19853335618972778,1.9190149184150784,1696619069451287749,
0.1564697027206421,-0.16617316007614136,1.7784002590751535,1696619069462019889,
-0.2804921865463257,0.36254429817199707,2.0565201605719183,1696619069471308106,
-0.1977439522743225,0.034734487533569336,1.8958654848739518,1696619069481369372,
-0.3591610789299011,0.2314053177833557,1.5245956970571037,1696619069493837395,
0.01689732074737549,0.6987257599830627,2.5193843809428316,1696619069501349961,
0.6289575695991516,0.4337790012359619,1.8837832101338985,1696619069511402823,
0.22836565971374512,-0.020618915557861328,1.8986562856875475,1696619069521432548,
-0.07724255323410034,0.33235305547714233,2.141682955255459,1696619069530393541,
-0.24385428428649902,0.3505259156227112,1.7975274107609747,1696619069541077492,
0.10995298624038696,-0.18026763200759888,1.8561066639008583,1696619069551409306,
-0.09371417760848999,0.19260019063949585,1.9287485088402956,1696619069561424502,
-0.072598397731781,0.3375600576400757,1.5747952223591526,1696619069573772448,
-0.009978055953979492,0.041047632694244385,2.5418044683011125,1696619069581433408,
-0.23516219854354858,0.35728853940963745,1.933527673102545,1696619069591501766,
-0.06855189800262451,0.20609521865844727,1.944748007601664,1696619069601510356,
-0.17413002252578735,0.13588279485702515,1.9412798244859415,1696619069611513632,
-0.11172658205032349,0.4696276783943176,1.8294569312949234,1696619069622080712,
0.0639680027961731,0.24265927076339722,2.0511415702379185,1696619069631497397,
-0.581466794013977,-0.4391237497329712,1.876117214492059,1696619069641809643,
-0.379280686378479,0.24863320589065552,1.6244573902810502,1696619069653737730,
-0.2112659215927124,0.3030048608779907,2.8576734646112922,1696619069660544222,
0.3769412636756897,-0.10617661476135254,1.9515247015884831,1696619069670574055,
0.3711068630218506,0.191081702709198,1.7753599867600571,1696619069681625793,
0.2457011342048645,0.0973319411277771,1.9388357386650497,1696619069691669184,
0.15540027618408203,0.42159801721572876,1.918762674391471,1696619069701670755,
0.03923863172531128,0.06438881158828735,1.8792506144827097,1696619069711766895,
-0.05633985996246338,-0.07229006290435791,1.8674492367067952,1696619069721865086,
0.012149930000305176,0.4667016863822937,1.4960138604117827,1696619069734414585,
-0.040238916873931885,-0.016887128353118896,2.5860875133918224,1696619069741649464,
0.14159071445465088,-0.006126761436462402,1.8595161339137054,1696619069751662100,
-0.22726130485534668,0.30728185176849365,1.8522024261687897,1696619069761686725,
0.062438130378723145,0.15132856369018555,1.8612275203319073,1696619069771669858,
0.07656586170196533,0.42801612615585327,1.8447713559014796,1696619069781715065,
-0.30688226222991943,0.33296799659729004,1.8497889590018661,1696619069791692587,
0.009293079376220703,0.13673579692840576,1.8445729881792852,1696619069801706586,
-0.5274820923805237,0.23089849948883057,1.5135406947983803,1696619069813977366,
-0.5193565487861633,0.45789629220962524,2.3532811180004405,1696619069821972243,
-0.036226868629455566,0.08645826578140259,1.9462411703564384,1696619069831773008,
-0.23667830228805542,0.3207017779350281,1.9203426033185396,1696619069841787056,
-0.24931859970092773,0.25785619020462036,1.9370446012755196,1696619069851776140,
0.23287814855575562,-0.10761821269989014,1.8550937028993435,1696619069862219508,
0.023680925369262695,0.24090808629989624,2.0140254851498876,1696619069871818163,
0.0287020206451416,0.4921870827674866,1.93447020103351,1696619069881801856,
0.25811290740966797,0.1757831573486328,1.6026545019206349,1696619069893807043,
-0.3586253523826599,0.12236213684082031,2.402424423470121,1696619069901817753,
-0.19169723987579346,0.04763531684875488,1.9234647602889925,1696619069911875948,
-0.2905747890472412,0.35520708560943604,1.929476542799472,1696619069921917857,
0.09082698822021484,0.3869563937187195,1.8993809541977797,1696619069932086404,
0.17103111743927002,-0.10005217790603638,1.9567598164840756,1696619069941947385,
0.11465132236480713,0.34430092573165894,1.9505690504941056,1696619069951852650,
-0.20222848653793335,0.4850844144821167,1.9288650498121358,1696619069961894072,
-0.012579023838043213,0.3207687735557556,1.6310467197311147,1696619069973762781,
-0.20484507083892822,0.32976818084716797,2.369260868922918,1696619069981906685,
-0.028842449188232422,0.10947710275650024,1.9221714850590776,1696619069991936894,
0.3547890782356262,0.31132203340530396,1.9180604853848562,1696619070002005940,
-0.06027257442474365,0.36230236291885376,1.9395725787183413,1696619070011946812,
-0.42496734857559204,-0.004146575927734375,1.9243238604459816,1696619070022025932,
-0.6137797236442566,0.13553351163864136,1.9563892160374654,1696619070031958264,
-0.28270071744918823,0.32167208194732666,1.9374603877828125,1696619070041976482,
0.09917235374450684,0.14307689666748047,1.586653867711136,1696619070054097792,
0.4655846953392029,0.5543190240859985,2.4129831970113793,1696619070061997058,
0.3033142685890198,0.1947704553604126,1.879878385516699,1696619070072123924,
0.29118019342422485,0.1349731683731079,1.905374591801013,1696619070082104528,
-0.09609955549240112,0.21413969993591309,1.8788601085058303,1696619070092141356,
-0.09313815832138062,0.014025628566741943,1.8777360292684457,1696619070102086363,
0.24048691987991333,0.0943002700805664,1.8534742342302784,1696619070112064636,
0.1513293981552124,0.2017911672592163,1.836810998213087,1696619070122091310,
0.2935746908187866,0.10902321338653564,1.5780918832822544,1696619070133735304,
0.18869692087173462,0.49033665657043457,2.183319033143489,1696619070142097740,
0.0681753158569336,0.19668495655059814,1.820804276599497,1696619070152144195,
0.1432172656059265,0.5233145356178284,1.831073574560707,1696619070172170496,
-0.3274151682853699,0.05678415298461914,1.7977025258426695,1696619070182481831,
-0.29931575059890747,0.40987545251846313,1.9416198456623484,1696619070192150901,
-0.5845043063163757,0.42674005031585693,1.8860977943247248,1696619070202247920,
-0.2125644087791443,0.3635622262954712,1.6628766217628648,1696619070213797123,
-0.4012242555618286,0.05591708421707153,2.2125416566882947,1696619070222495587,
0.04826551675796509,0.7948122620582581,1.9375368690095638,1696619070232500515,
0.16136175394058228,0.3690890073776245,1.5726097058343078,1696619070244848690,
-0.016965210437774658,-0.18669289350509644,2.5576950612518727,1696619070252435058,
-0.11091494560241699,0.39971107244491577,1.9748162702631509,1696619070262310582,
-0.26429033279418945,0.08337807655334473,1.9601658632374375,1696619070272228560,
-0.12694835662841797,0.4040265679359436,1.9437430677585643,1696619070282254924,
-0.3829357624053955,0.19262856245040894,1.6266252084686306,1696619070294174246,
0.17056429386138916,-0.1323903203010559,2.3727335981102713,1696619070302273350,
0.22788137197494507,1.1375411748886108,1.9076111555371065,1696619070312324491,
-0.16227567195892334,0.3207108974456787,1.6398506287709647,1696619070323911942,
-0.47427481412887573,0.1215592622756958,2.2691067303573864,1696619070332295751,
-0.6873667240142822,0.31144171953201294,1.90287933330665,1696619070342387062,
0.07479536533355713,-0.022179067134857178,1.9256857246881725,1696619070352408616,
0.3603074550628662,0.6297548413276672,1.9474195207890044,1696619070362373001,
0.11694622039794922,0.06413048505783081,1.586287282326557,1696619070374475024,
0.3176923394203186,-0.06116098165512085,2.4112554560212582,1696619070382390523,
0.31402677297592163,0.6581299901008606,2.0683308644905356,1696619070391540993,
0.2245151400566101,0.1565524935722351,1.5139326610789452,1696619070403798618,
0.32113975286483765,0.49641919136047363,2.134650822652873,1696619070412413898,
0.21314072608947754,0.024118423461914062,1.8163846294515933,1696619070422495261,
-0.12000060081481934,-0.04869288206100464,1.8510571009791819,1696619070432424880,
-0.2960343360900879,0.7492078542709351,2.047222990090567,1696619070441427380,
-0.3578747510910034,-0.16842347383499146,1.4716768558184068,1696619070453893479,
-0.25199460983276367,0.37283748388290405,2.144892196255197,1696619070462475100,
-0.2286248803138733,0.5017595887184143,1.805302062827365,1696619070472675408,
0.0686538815498352,0.3739601969718933,1.4604377991755941,1696619070485373618,
0.16733330488204956,0.810653567314148,2.6423445467613615,1696619070492484002,
-0.12284833192825317,-0.012501955032348633,2.0860891927160474,1696619070501557789,
-0.18700909614562988,0.5169854760169983,1.9067942965188414,1696619070511549354,
-0.3027624487876892,0.2497761845588684,1.7247740732016426,1696619070522581742,
-0.33928292989730835,-0.1074066162109375,1.6922924835093152,1696619070533787616,
-0.20783674716949463,0.5616940259933472,2.4271141216864622,1696619070541551980,
-0.1571277379989624,0.09836477041244507,1.681360852768162,1696619070552681956,
-0.10160648822784424,0.7585120797157288,1.853570804346645,1696619070572708633,
-0.10817176103591919,0.11555838584899902,1.8274741135570616,1696619070582844842,
-0.16579967737197876,0.5997224450111389,1.888565480789007,1696619070592662696,
-0.020785808563232422,-0.03544652462005615,1.857114787338017,1696619070602621975,
-0.06573700904846191,0.27618491649627686,1.6442864407702058,1696619070613845212,
-0.19836407899856567,0.19970184564590454,2.0785571451863167,1696619070622675497,
-0.20555049180984497,0.07937318086624146,1.826095936922554,1696619070632662446,
-0.14882737398147583,0.5007030963897705,1.3902422591855486,1696619070645657731,
-0.07273811101913452,-0.10172045230865479,2.5589904334769855,1696619070652669397,
0.6368098855018616,0.6025151610374451,1.775104756607616,1696619070662730189,
0.014066100120544434,0.37011194229125977,1.773213313322057,1696619070672747486,
-0.28088390827178955,-0.13172078132629395,1.7743632191482739,1696619070682753478,
-0.51364666223526,0.37563806772232056,1.539559843042245,1696619070694245668,
-0.333961546421051,0.08639097213745117,2.0816155652147526,1696619070702755925,
0.40883123874664307,0.4913433790206909,1.7748865734391819,1696619070712752863,
0.26533186435699463,0.3306480050086975,1.3449764890846996,1696619070725973396,
0.2597711682319641,0.4316118359565735,2.625544426886566,1696619070732802740,
-0.3460623621940613,0.03388702869415283,1.7629306611296789,1696619070743013764,
-0.3820447325706482,0.18402063846588135,1.804492829577907,1696619070753023697,
-0.40288007259368896,0.1738225817680359,1.8436354942310382,1696619070762867774,
-0.3319047689437866,0.05494225025177002,1.6628308753416337,1696619070773815346,
0.09447681903839111,0.541100263595581,2.013106834998483,1696619070782849049,
0.09400838613510132,0.1006283164024353,1.7491017969915674,1696619070793162818,
-0.1263892650604248,0.08297508955001831,1.7913818320152366,1696619070822935786,
-0.22006124258041382,0.215223491191864,1.7694683474099193,1696619070832921330,
-0.1372302770614624,-0.03954261541366577,1.7699043982677771,1696619070842896664,
0.3455493450164795,0.5187758207321167,1.571214508572442,1696619070854091595,
0.01897585391998291,0.16578614711761475,1.9637480064457298,1696619070862972145,
0.018786966800689697,-0.3231712579727173,1.6987215718352486,1696619070873099557,
-0.09620082378387451,0.45992064476013184,1.3033431881363269,1696619070886094790,
0.12543416023254395,0.5025652647018433,2.426456073215377,1696619070892962928,
0.09602218866348267,0.4970242381095886,1.637602950689814,1696619070903036194,
0.09413552284240723,0.06360197067260742,1.6414530683819095,1696619070913025702,
-0.0031798481941223145,0.06281936168670654,1.6496512680844295,1696619070923016964,
-0.16660410165786743,0.7702623605728149,1.5073935902955857,1696619070934022000,
-0.22286492586135864,0.11971253156661987,1.8437119602907113,1696619070943002412,
-0.17081642150878906,0.23370003700256348,1.6467799585739493,1696619070953080464,
0.11472481489181519,0.3953384757041931,1.6527955954838858,1696619070973290948,
0.06356275081634521,0.745622992515564,1.7152110676402275,1696619070983081838,
-0.23547595739364624,0.05321180820465088,1.6780891725779108,1696619070993098578,
-0.18316882848739624,0.32485300302505493,1.684734765836357,1696619071003136414,
-0.13095033168792725,0.2563651204109192,1.5298574709173487,1696619071014212589,
-0.07929521799087524,-0.07336574792861938,1.9031074225223197,1696619071023129306,
-0.2926492691040039,0.4215104579925537,1.6619945489460473,1696619071033361830,
-0.44827187061309814,0.11183959245681763,1.3845252959124112,1696619071045618317,
-0.18784481287002563,0.7681056261062622,2.2510137487183397,1696619071053131331,
-0.18838435411453247,0.4392518997192383,1.6653917343984264,1696619071063233794,
0.29959386587142944,0.048381149768829346,1.69452746263722,1696619071073230659,
0.05043232440948486,0.6432703733444214,1.6984684185476582,1696619071083241277,
-0.22108244895935059,-0.024312376976013184,1.5885356961209254,1696619071093839641,
-0.14004093408584595,0.550425112247467,1.7663918008234893,1696619071103261898,
-0.19029611349105835,0.5131655931472778,1.6545572272244862,1696619071113236982,
0.04294300079345703,0.0019648075103759766,1.330828321996744,1696619071125635029,
-0.07508575916290283,0.0868157148361206,2.179909174110868,1696619071133205042,
-0.0029103755950927734,0.14165633916854858,1.6433380842225334,1696619071143265261,
0.040357112884521484,0.9926776885986328,1.6432246846727903,1696619071153296690,
0.022731006145477295,0.5351579785346985,1.610792356786167,1696619071163433324,
-0.09182965755462646,-0.47861456871032715,1.5751647539465836,1696619071173799149,
-0.21936184167861938,0.3282029628753662,1.7138980316027637,1696619071183283421,
-0.25123095512390137,0.30218327045440674,1.5667277676808031,1696619071193583187,
-0.017539680004119873,0.35194939374923706,1.2891074042403614,1696619071206105743,
0.19124197959899902,0.08865445852279663,2.2448760583163985,1696619071213339585,
0.02351170778274536,0.23838037252426147,1.6188543606292716,1696619071223436420,
0.24181437492370605,0.9900168776512146,1.6249601656979824,1696619071233468013,
0.04072272777557373,0.13147932291030884,1.6252232284449342,1696619071243475323,
-0.23961174488067627,0.31400924921035767,1.5716225360768137,1696619071253798926,
-0.20920729637145996,0.12760096788406372,1.825276793252652,1696619071262623876,
-0.281055212020874,0.5671809911727905,1.4862831274003796,1696619071273394293,
-0.25454336404800415,-0.03104233741760254,1.295029348013597,1696619071285677935,
0.23268651962280273,0.6415599584579468,2.0596118466366597,1696619071293397512,
0.3867987394332886,0.5855759978294373,1.5905877254849723,1696619071303462183,
0.030495285987854004,-0.18691521883010864,1.6100656132753588,1696619071313502934,
-0.5189394354820251,-0.09693706035614014,1.63808810591399,1696619071323485221,
-0.5373293161392212,0.13245153427124023,1.5316508169820706,1696619071334200251,
0.06622844934463501,0.7616046667098999,1.7613066301911962,1696619071343471779,
0.30758368968963623,0.4405062794685364,1.5684770577438232,1696619071353685836,
0.08491349220275879,-0.22532427310943604,1.4191013257561271,1696619071364700662,
0.5521093606948853,0.5491330623626709,1.7051394042210606,1696619071373723122,
-0.17488020658493042,0.8506213426589966,1.529510864585323,1696619071383658657,
0.041318416595458984,0.6079878211021423,1.6804506476717835,1696619071392633877,
-0.13299554586410522,0.05447375774383545,1.5015640480134747,1696619071402649139,
-0.18813741207122803,-0.320220947265625,1.2753474126097455,1696619071414517214,
-0.47010332345962524,0.45744019746780396,1.6757680694853208,1696619071423641537,
-0.5062945485115051,0.021705210208892822,1.529769967119542,1696619071433661821,
-0.029054105281829834,-0.07081186771392822,1.2518170224199492,1696619071445958177,
-0.25744903087615967,0.381106972694397,2.007736961871552,1696619071453660476,
0.04085695743560791,0.631292462348938,1.524552594320691,1696619071463816804,
0.3138226270675659,0.7217097878456116,1.572171617437408,1696619071473716809,
-0.09979391098022461,0.27166521549224854,1.5609384421440329,1696619071483741309,
-0.2104920744895935,0.3378322720527649,1.5248980478155785,1696619071494020623,
-0.01775902509689331,0.5992634892463684,1.6083942921239995,1696619071503733825,
0.03866159915924072,0.2226334810256958,1.5501235362335917,1696619071513747282,
-0.0821535587310791,0.39219117164611816,1.23265639374678,1696619071526293818,
-0.1930498480796814,0.2235109806060791,2.071018131887048,1696619071533745530,
0.26065272092819214,0.43912768363952637,1.5403197274520182,1696619071543795537,
0.4035547971725464,0.36796432733535767,1.5507250302567017,1696619071553801345,
0.05131787061691284,-0.1967228651046753,1.5510231834502386,1696619071563807354,
-0.15827131271362305,0.021932542324066162,1.5526092304675965,1696619071573810411,
-0.24533742666244507,0.11555272340774536,1.5426987850307523,1696619071583824037,
-0.020303785800933838,0.3994572162628174,1.4990245088227718,1696619071594032446,
-0.23952919244766235,0.38229358196258545,1.2975609304437525,1696619071605687358,
0.06515246629714966,0.1433546543121338,1.8478518609750343,1696619071613804243,
-0.027477622032165527,0.7937177419662476,1.4525151434752157,1696619071624050819,
-0.3618510961532593,0.4581613540649414,1.500210156255474,1696619071633896433,
-0.4664267897605896,0.532616138458252,1.4758240351811311,1696619071643908613,
-0.10648030042648315,0.3442477583885193,1.4431935796616333,1696619071654244825,
-0.1894891858100891,-0.19163161516189575,1.5781605730778503,1696619071663872597,
-0.31359267234802246,0.12786561250686646,1.5335849040935308,1696619071673888179,
0.0530780553817749,0.13943976163864136,1.3026118612925026,1696619071685671099,
0.14570313692092896,0.14763718843460083,1.848053970251481,1696619071693913308,
-0.2203381061553955,0.2977811098098755,1.4857817870686734,1696619071704020198,
-0.12304848432540894,0.3965892195701599,1.494550196521512,1696619071713950520,
-0.011773943901062012,0.9708062410354614,1.4615655220365744,1696619071723977389,
0.18226420879364014,0.24665772914886475,1.4441818167220783,1696619071734072860,
0.12892448902130127,0.14683300256729126,1.4280807476817396,1696619071744390327,
-0.17584657669067383,0.4478530287742615,1.5347628273932743,1696619071754067651,
-0.38318514823913574,-0.04562997817993164,1.2780255729135275,1696619071765696973,
0.04415231943130493,-0.10259991884231567,1.6281961494359147,1696619071774757674,
0.6295413374900818,0.37783509492874146,1.45511693804067,1696619071784775959,
0.5279607772827148,0.766937255859375,1.5607888160046604,1696619071794016398,
0.18282413482666016,0.3365265727043152,1.325006071254858,1696619071804786430,
-0.3360942006111145,0.4390355348587036,1.4374762351794517,1696619071814746961,
-0.3849022388458252,0.25369787216186523,1.4380826003586238,1696619071824783924,
-0.19070571660995483,0.5447716116905212,1.4598120285468,1696619071834709247,
-0.20298725366592407,0.44731128215789795,1.272567952238865,1696619071846134062,
-0.03540658950805664,-0.16043323278427124,1.7019977630854832,1696619071854707749,
0.015268146991729736,0.22392690181732178,1.463588278900641,1696619071864772539,
-0.25650447607040405,0.5988569259643555,1.5790298063840116,1696619071874125546,
-0.21008789539337158,0.35781383514404297,1.374811058536545,1696619071884784439,
-0.2224329113960266,0.20180857181549072,1.4225758787854954,1696619071894987804,
-0.3257454037666321,0.009786367416381836,1.4688135773306676,1696619071904826372,
-0.09501546621322632,0.7698168158531189,1.424060795000257,1696619071914973555,
0.1242334246635437,0.34183651208877563,1.3462937275982283,1696619071925701218,
-0.11193883419036865,0.08740085363388062,1.604656975938933,1696619071934738183,
-0.020894348621368408,0.3838196396827698,1.4421471848263676,1696619071944796830,
0.149408221244812,0.3191763758659363,1.2092986102657044,1696619071956682931,
0.29435664415359497,0.4402775168418884,1.7392591163874818,1696619071964841176,
0.13384556770324707,0.07454240322113037,1.3652303757189919,1696619071975086594,
-0.10940712690353394,0.18120431900024414,1.4228833373062366,1696619071984846423,
-0.24649351835250854,0.3979337811470032,1.3948411585283285,1696619071994817257,
-0.3476628065109253,0.02447962760925293,1.2887552278715764,1696619072005760999,
-0.13380473852157593,0.24175500869750977,1.5830324688977375,1696619072014771073,
0.15292668342590332,0.31511712074279785,1.4339690726216432,1696619072024832082,
0.3495665192604065,0.5224505066871643,1.2117250752445725,1696619072036711135,
0.29345381259918213,0.725163459777832,1.7483918797954736,1696619072044899586,
-0.13121211528778076,-0.030163824558258057,1.4195811128477753,1696619072054842767,
0.07481259107589722,0.44132179021835327,1.3871667037128037,1696619072064928106,
-0.15039503574371338,0.4965965747833252,1.3820099792598026,1696619072075007292,
-0.13512170314788818,0.2944220304489136,1.252669936686247,1696619072086132351,
-0.22579425573349,0.5040202140808105,1.6105587269106816,1696619072094815549,
-0.16110241413116455,-0.041737914085388184,1.4071479402035225,1696619072104883862,
-0.26753997802734375,0.6165035367012024,1.1844671991105165,1696619072116936716,
-0.3437970280647278,0.3032788038253784,1.7876611085331147,1696619072124889345,
0.04606097936630249,0.3176223039627075,1.4228425487174463,1696619072134889956,
0.15848809480667114,0.648318350315094,1.420484757741952,1696619072144890929,
0.18667292594909668,0.006429791450500488,1.4132890577655015,1696619072154821947,
0.09314960241317749,0.24816513061523438,1.223081338314728,1696619072166206654,
-0.3680381178855896,0.3891131281852722,1.5946833426363816,1696619072174853955,
-0.2436961531639099,0.19620954990386963,1.3689519707327826,1696619072184910414,
-0.2257847785949707,0.5368777513504028,1.1590943084878258,1696619072196708681,
0.0030788779258728027,-0.021398484706878662,1.6745028212912312,1696619072204919717,
0.33505910634994507,0.607559859752655,1.3846277045130038,1696619072214880581,
-0.009917199611663818,0.33716171979904175,1.3580806728837458,1696619072224948442,
-0.32200008630752563,-0.051244497299194336,1.3705657158609124,1696619072234900315,
-0.42593443393707275,0.37430423498153687,1.2541974365547914,1696619072245753433,
-0.44588351249694824,0.04385322332382202,1.4748700412892903,1696619072254935667,
0.18274295330047607,0.27640533447265625,1.3440385417523515,1696619072264990240,
0.2260093092918396,0.37019193172454834,1.0917603491108028,1696619072277309410,
0.13212710618972778,0.8558449745178223,1.7000217006684977,1696619072285251232,
-0.05325692892074585,0.19235527515411377,1.3524307131850428,1696619072295181575,
-0.19737064838409424,0.2946525812149048,1.3344749575093786,1696619072305229129,
-0.4856554865837097,0.1481751799583435,1.3361744729104985,1696619072315257442,
-0.2073662281036377,0.1854436993598938,1.2783659433589167,1696619072325750904,
0.012385189533233643,0.5736788511276245,1.4758548568503977,1696619072334904472,
-0.021553218364715576,0.013215184211730957,1.3392082720436984,1696619072345056671,
0.053452134132385254,0.11265784502029419,1.079779335871317,1696619072357671750,
-0.04660564661026001,0.6131346821784973,1.8669094534058566,1696619072364957781,
0.21779876947402954,0.5473531484603882,1.3382894246511385,1696619072375033409,
0.12945836782455444,0.6256362795829773,1.3397416968152402,1696619072385028169,
-0.0843467116355896,-0.009702324867248535,1.3342356817271472,1696619072394976964,
-0.29666250944137573,0.39078325033187866,1.2234123720585799,1696619072405808423,
-0.24396765232086182,0.41743242740631104,1.4514979365491605,1696619072415015262,
-0.1182202696800232,-0.146243155002594,1.332530368686393,1696619072425077415,
-0.12069040536880493,0.30261629819869995,1.059527757018916,1696619072437741103,
0.04601097106933594,0.35271012783050537,1.8217046803538857,1696619072445077152,
0.1788371205329895,0.6077344417572021,1.3293228684100105,1696619072455095426,
0.004512429237365723,0.5531938076019287,1.3205723856202385,1696619072465035393,
-0.3035815954208374,0.06720435619354248,1.3005649327704147,1696619072475083347,
-0.30975574254989624,0.5122203230857849,1.1880537394851192,1696619072486186506,
-0.12699103355407715,0.00781017541885376,1.5064501569208868,1696619072495003295,
0.09225785732269287,0.015346646308898926,1.3209547260604293,1696619072505156670,
0.18979781866073608,0.3901097774505615,1.065180564751524,1696619072517729310,
0.00676727294921875,0.32845067977905273,1.807904824275565,1696619072525087140,
0.12069272994995117,0.8930532336235046,1.2926639881530007,1696619072535148083,
-0.0542445182800293,0.2930583953857422,1.2747896008091297,1696619072545114419,
-0.0808098316192627,0.19948172569274902,1.2812064413839752,1696619072555088814,
-0.17480236291885376,0.5068774223327637,1.2182095223051614,1696619072565703641,
-0.0432126522064209,-0.0747334361076355,1.4022031839121003,1696619072575063935,
-0.11008197069168091,0.32015299797058105,1.285851724690912,1696619072585369471,
-0.23958039283752441,0.5721463561058044,1.3343717990384674,1696619072605158851,
-0.08952063322067261,0.7895415425300598,1.3005550335467897,1696619072615161998,
0.07249724864959717,0.14993101358413696,1.2973555628045224,1696619072625154985,
0.08930295705795288,0.6152694821357727,1.3024327753532265,1696619072635178772,
-0.03212374448776245,0.22921311855316162,1.2173937644053983,1696619072646041076,
0.08024513721466064,0.003807663917541504,1.472744858754319,1696619072655144954,
-0.024385273456573486,0.39339184761047363,1.3321321148730387,1696619072665195291,
0.1969205141067505,0.5298307538032532,1.3054544026622625,1696619072685176099,
-0.3334026336669922,0.321719765663147,1.2696511793424974,1696619072695187006,
-0.30384165048599243,0.4485490322113037,1.2651703626093724,1696619072705184977,
-0.14048141241073608,0.6249426603317261,1.2665606085342462,1696619072715174712,
0.0527380108833313,-0.09219765663146973,1.2021214273580785,1696619072725805591,
0.1341334581375122,0.25404393672943115,1.37620966206381,1696619072735184449,
-0.235429584980011,0.19239658117294312,1.2818598276233009,1696619072745237482,
-0.1650964617729187,0.1597028374671936,0.9893712312700003,1696619072758084191,
-0.5368833541870117,0.42210811376571655,1.76930454056385,1696619072765214679,
-0.256769597530365,0.1438060998916626,1.2544730098718584,1696619072775190250,
0.011589586734771729,0.7682364583015442,1.2410230934023607,1696619072785248535,
0.2765699625015259,0.20438605546951294,1.220197020858867,1696619072795525765,
-0.2507074475288391,0.2080124020576477,1.134003250497779,1696619072806707903,
-0.25142860412597656,0.14083558320999146,1.4575773298021983,1696619072815410506,
-0.15940970182418823,0.49952638149261475,1.2699854908887338,1696619072825348553,
-0.4575573801994324,0.306951105594635,0.9649184208612532,1696619072838352976,
-0.027043044567108154,-0.07620251178741455,1.7875086179360122,1696619072845330099,
0.4801325798034668,0.5265111327171326,1.2444574900873666,1696619072855330484,
0.4808961749076843,0.6139252781867981,1.2386892007009225,1696619072865381182,
0.14117342233657837,0.4688451290130615,1.3586248077925522,1696619072874542881,
-0.020289301872253418,-0.04508483409881592,1.0802449285050053,1696619072886014071,
-0.32828420400619507,0.09466159343719482,1.2646524793337954,1696619072895799862,
-0.3895711898803711,0.729948878288269,1.2966142679050319,1696619072905367164,
0.24512100219726562,0.20496481657028198,1.2424185257889788,1696619072925373778,
0.26756173372268677,0.6326979994773865,1.250639659846004,1696619072935388807,
0.25148969888687134,0.6652625799179077,1.2439326150621157,1696619072945491384,
0.019242286682128906,0.46118366718292236,1.2284008246621034,1696619072955625834,
-0.2691205143928528,0.3073708415031433,1.2399830526940807,1696619072975421106,
-0.3406534194946289,0.2132558822631836,1.228507933273254,1696619072985448284,
-0.41004329919815063,-0.25262385606765747,0.9762164264215901,1696619072998216930,
-0.12112081050872803,0.2722633481025696,1.754113987306562,1696619073005471566,
-0.10211771726608276,0.4047834873199463,1.2893496686487715,1696619073015454448,
0.3826289176940918,0.8322205543518066,1.2718179488116372,1696619073025520806,
0.07538682222366333,0.6467166543006897,1.2681639102236646,1696619073035467504,
-0.2697913646697998,0.2888110280036926,1.162915218535502,1696619073046242412,
-0.2518177628517151,0.553950846195221,1.4553582955126627,1696619073054805366,
-0.01884561777114868,0.22208940982818604,1.2587827421471602,1696619073064548862,
0.15236753225326538,0.1256946325302124,1.2061845026135294,1696619073084538626,
0.42340606451034546,-0.0949411392211914,1.050517793348162,1696619073095884348,
0.3014211654663086,0.5648069381713867,1.3623242748319482,1696619073104616152,
-0.11765086650848389,0.33471429347991943,1.192486856770944,1696619073114576137,
-0.12230706214904785,0.5135108828544617,1.1273466985971652,1696619073125196407,
-0.15073424577713013,0.3044162392616272,1.2353744478334965,1696619073134947645,
-0.028140723705291748,0.06377530097961426,1.133393600480447,1696619073145618680,
0.11139035224914551,0.6012178063392639,0.9144300188779588,1696619073158786493,
-0.14617156982421875,0.24338936805725098,1.7371819003191404,1696619073165644000,
0.016126513481140137,0.26936042308807373,1.188841965734491,1696619073175665213,
-0.3664846420288086,0.5710673332214355,1.1941010658046625,1696619073185679866,
-0.05593991279602051,0.5057796239852905,1.1831876191763966,1696619073195879478,
0.3006473779678345,0.58393394947052,1.1641601598783573,1696619073206344366,
0.21914702653884888,-0.1000220775604248,1.3164319940397986,1696619073215656948,
-0.2933851480484009,0.17413198947906494,1.2182264173941084,1696619073225745867,
-0.33945316076278687,0.38845980167388916,1.0140567136073992,1696619073237792501,
-0.23675572872161865,0.21838802099227905,1.523383806589015,1696619073245743962,
-0.327534556388855,0.46438920497894287,1.1766619801676366,1696619073255956318,
0.14886176586151123,0.17975008487701416,1.2065090520719233,1696619073265827137,
0.556032657623291,0.4744371175765991,1.1852034254919483,1696619073275792655,
0.09193867444992065,0.475421667098999,1.162620533498425,1696619073285853524,
-0.3325313925743103,0.07387077808380127,1.1377295668351175,1696619073296101547,
-0.36078524589538574,0.27668213844299316,1.1945486149933857,1696619073305878062,
0.39268064498901367,0.38232362270355225,1.1788714654840804,1696619073325916474,
0.37407684326171875,0.0014188289642333984,1.1792101618655912,1696619073335925353,
-0.1087602972984314,0.37536120414733887,1.1679729935339778,1696619073345946559,
-0.4151681661605835,0.6580895185470581,1.1422115580494983,1696619073356118939,
-0.30334335565567017,0.5713446140289307,1.096568229587109,1696619073366645821,
0.06395810842514038,0.18447840213775635,1.244936419627653,1696619073375901752,
0.06016123294830322,-0.1601695418357849,1.1630426392944917,1696619073385934037,
0.00726693868637085,0.5139867663383484,0.9515013033797011,1696619073398376192,
-0.024023234844207764,0.21672523021697998,1.5630026064601434,1696619073405919443,
-0.39552730321884155,0.332984983921051,1.174355212280685,1696619073415924183,
-0.42086493968963623,0.38704168796539307,1.1673551107262783,1696619073426047057,
0.27207499742507935,0.3171013593673706,1.2000118639604975,1696619073435969757,
0.8673971891403198,0.6974853277206421,1.1550654327296948,1696619073446382846,
0.2810654640197754,0.20478761196136475,1.2580515834635484,1696619073455971202,
0.005678355693817139,0.14925676584243774,1.19053003742181,1696619073466007254,
-0.31873828172683716,0.3792073130607605,0.9937925663741809,1696619073477799645,
-0.6591482758522034,0.06044799089431763,1.4136354061747547,1696619073486022209,
-0.29830342531204224,0.4873870015144348,1.1649088605558242,1696619073496020795,
0.29743462800979614,0.06825244426727295,1.149564453366324,1696619073506134959,
0.4936404228210449,0.5216582417488098,1.1709527047594164,1696619073516058745,
0.12644195556640625,0.8046627044677734,1.1460343145010223,1696619073526125900,
-0.19409805536270142,0.22343599796295166,1.1536993528328205,1696619073536083536,
-0.4511412978172302,0.4550003409385681,1.1512616421034683,1696619073546121825,
-0.5062943696975708,0.058463096618652344,0.9560248335875609,1696619073558257545,
0.5801955461502075,0.4265304207801819,1.2821879600019348,1696619073576435408,
0.5066438317298889,0.01771634817123413,1.1735047173545423,1696619073586165870,
-0.28755050897598267,0.6991455554962158,1.1263041270647516,1696619073596135733,
-0.44290417432785034,0.1285296082496643,1.0978799301994404,1696619073606200769,
-0.2369632124900818,0.393276572227478,1.1092037517165054,1696619073616182305,
0.21827274560928345,0.6046990156173706,1.1151296434623885,1696619073626205337,
0.442100465297699,0.001812577247619629,0.9019230751790669,1696619073638738523,
0.1314401626586914,0.3085349202156067,1.5045343693814974,1696619073646316262,
-0.22584545612335205,0.3517133593559265,1.1315971173094328,1696619073656377145,
-0.4903740882873535,0.12003779411315918,1.1502569163579757,1696619073666279571,
-0.2452670931816101,0.37206214666366577,1.1253364534066654,1696619073676368990,
0.2851974368095398,0.17967957258224487,1.143055447228144,1696619073686250605,
0.6536523699760437,0.8453343510627747,1.1205644914781463,1696619073696257546,
0.015118658542633057,0.4336780905723572,1.1068184985532672,1696619073706271205,
-0.2863697409629822,0.4204309582710266,1.1158505347960799,1696619073726348310,
-0.3422619104385376,-0.2574598789215088,1.1410345811633948,1696619073736345199,
0.04526776075363159,0.2809588313102722,0.8951781222772474,1696619073749136604,
0.44099199771881104,0.37233060598373413,1.5753751721438982,1696619073756350174,
0.29640811681747437,0.6825559735298157,1.0851581386482145,1696619073766728091,
-0.5703805685043335,0.7600038051605225,1.1615835122429088,1696619073776347543,
-0.3084617853164673,-0.056572914123535156,1.120919732702262,1696619073786364259,
-0.1778247356414795,0.1104433536529541,0.966459932735896,1696619073798116451,
-0.07084542512893677,0.12704986333847046,1.3699554775960996,1696619073806442466,
0.48844772577285767,0.5321376919746399,1.1314717588251773,1696619073816480424,
-0.26939719915390015,0.4814700484275818,0.9074133148142647,1696619073828885160,
-0.4754204750061035,0.19931834936141968,1.6751650005570031,1696619073835591477,
0.03844869136810303,0.555462121963501,1.0958826037864382,1696619073845814925,
0.5719822645187378,0.4925073981285095,1.0457405951180172,1696619073856416680,
0.4532237648963928,0.34059596061706543,1.0801219399781854,1696619073866487149,
-0.26748692989349365,0.5696316957473755,1.0680332347910821,1696619073886623750,
0.03353017568588257,0.16359496116638184,1.1003614515689861,1696619073896512694,
-0.06961262226104736,-0.17596566677093506,0.8717721932608588,1696619073909130650,
0.05798536539077759,0.31840479373931885,1.4902970632244343,1696619073916530014,
0.2792271375656128,0.7591889500617981,1.2054471065143035,1696619073925553892,
0.12808650732040405,0.8708003163337708,0.9698824724653448,1696619073936642674,
0.10535770654678345,0.13007360696792603,1.2054032502937495,1696619073945566933,
0.1040390133857727,0.2518033981323242,1.0441026321608025,1696619073966589147,
-0.4498208165168762,0.045052528381347656,1.0824091523635806,1696619073976851674,
-0.44980138540267944,0.3292120099067688,0.9082215401888489,1696619073989072377,
-0.43845486640930176,0.2583470940589905,1.4881860416663166,1696619073996583360,
0.21332746744155884,0.5354986190795898,1.1998313308904518,1696619074006051872,
0.8492287397384644,0.958515465259552,1.0873340457009348,1696619074016608067,
0.41331350803375244,0.03425920009613037,1.130330369492857,1696619074026675733,
0.12037652730941772,0.3498287796974182,1.0022540399942756,1696619074037888570,
-0.5673850774765015,0.5073270797729492,1.2074567081146848,1696619074047081510,
-0.4595873951911926,0.5116094350814819,1.115512483201394,1696619074056884025,
-0.09374052286148071,0.16024643182754517,0.8590109016415468,1696619074069404724,
0.2913370132446289,-0.3628274202346802,1.4685148275746391,1696619074076681721,
0.5472866296768188,0.4102481007575989,1.0183707958590715,1696619074087200307,
-0.20027214288711548,0.41502636671066284,1.1088512660501415,1696619074096806215,
-0.27689963579177856,0.294497013092041,1.06243088318087,1696619074106832663,
0.04476422071456909,0.04914236068725586,1.0711355050183455,1696619074126783731,
0.3156529664993286,0.5911611914634705,1.0720826390836307,1696619074136780061,
-0.02675461769104004,0.13480859994888306,0.7682642965562201,1696619074150594886,
-0.02675461769104004,0.13480859994888306,1.6938863414389524,1696619074156819019,
-0.4178454875946045,0.30327165126800537,1.0481096903614668,1696619074166844114,
-0.3563900589942932,0.07274597883224487,1.038992544172213,1696619074177050338,
0.16794127225875854,0.6137860417366028,1.0995768713846619,1696619074186874912,
0.4980810284614563,0.02381056547164917,0.9723792318025032,1696619074198076577,
0.09638279676437378,-0.09586268663406372,1.246011190151895,1696619074206885328,
-0.2569282054901123,0.47710615396499634,1.0538272943697022,1696619074217305453,
-0.39459049701690674,0.3384903073310852,0.8679853477695048,1696619074229870271,
-0.4181661009788513,0.503765881061554,1.5346720006562071,1696619074236923175,
-0.12518078088760376,0.2322859764099121,1.0696635926550004,1696619074246921954,
0.4815986752510071,0.3813129663467407,1.0631522427324367,1696619074256912655,
0.6007121205329895,0.865024209022522,1.0399372659953676,1696619074267103933,
0.22029834985733032,0.33245283365249634,0.9596779176949426,1696619074278246397,
-0.3122408986091614,0.2081831693649292,1.240680450028035,1696619074286963818,
-0.39319801330566406,-0.09298455715179443,1.0841760817609587,1696619074296978325,
-0.24333393573760986,0.14829492568969727,0.8434838651481386,1696619074309841368,
-0.039041101932525635,0.4797719120979309,1.4969776853128338,1696619074317014960,
0.03606438636779785,0.07288634777069092,1.0597256513926627,1696619074327064183,
-0.01968824863433838,0.26689159870147705,1.0581543574971697,1696619074337101699,
0.08869683742523193,0.5806499719619751,1.0503285587761892,1696619074347167522,
0.3891110420227051,0.3177783489227295,0.9774865102639524,1696619074357829288,
-0.06746309995651245,-0.21270185708999634,1.0877307592062628,1696619074367223364,
-0.2531457543373108,0.6017626523971558,1.0346299857155365,1696619074377059904,
-0.2255394458770752,0.3926863670349121,0.8060870912356646,1696619074389704343,
0.2790837287902832,-0.0259590744972229,1.3810092732309305,1696619074397078917,
0.10895764827728271,0.25546056032180786,1.0083323236911055,1696619074407187954,
-0.20158547163009644,0.5543206334114075,1.0139754161568728,1696619074417218635,
0.00798708200454712,0.8522331714630127,1.019477447081619,1696619074427168234,
-0.06632435321807861,0.2469477653503418,0.9058424169635275,1696619074438407415,
-0.12964630126953125,0.01897960901260376,1.180615689688107,1696619074447163404,
0.19494330883026123,0.31001800298690796,1.051327172577115,1696619074457143020,
0.15717369318008423,0.07750731706619263,0.7762546632489465,1696619074470700075,
-0.29162293672561646,0.3924673795700073,1.6233490030416111,1696619074477176117,
-0.3086446523666382,0.20230728387832642,1.0392002736074955,1696619074487246719,
0.18625956773757935,0.35580307245254517,1.0361322444824905,1696619074497275960,
0.34219491481781006,0.8103171586990356,1.0241488912012746,1696619074507350495,
0.31509751081466675,0.27394694089889526,0.9706152228291686,1696619074517922984,
-0.30873745679855347,0.3361018896102905,1.1135673154543368,1696619074527243035,
-0.3954660892486572,0.03419870138168335,1.0517814969866521,1696619074537262968,
-0.10915762186050415,-0.026345908641815186,0.8265154733292347,1696619074550155740,
0.14252036809921265,0.4595481753349304,1.4999810800087467,1696619074557260065,
0.5636094212532043,0.14911937713623047,1.0390595365669626,1696619074567339647,
0.07295644283294678,0.6777544617652893,1.0215567111616217,1696619074577364958,
-0.29902970790863037,0.36488980054855347,1.0105217285486845,1696619074587334661,
-0.17480474710464478,0.3500177264213562,0.8829468950853878,1696619074598690919,
0.3800790309906006,0.47777003049850464,1.1563663688022165,1696619074607338979,
0.07837629318237305,0.041348934173583984,0.9969437692732304,1696619074617380432,
-0.28043287992477417,0.5459417700767517,0.7996734260960076,1696619074629926217,
-0.22427672147750854,0.31181979179382324,1.3430523245427795,1696619074637347738,
-0.14970606565475464,-0.16092509031295776,0.9896409211213287,1696619074647425758,
-0.08734333515167236,0.31612491607666016,0.9958198833352422,1696619074657425663,
-0.25042760372161865,0.4270046353340149,0.9915180367919488,1696619074667431266,
-0.10836857557296753,0.9409344792366028,0.9633522815592428,1696619074677824229,
-0.018870651721954346,-0.07013458013534546,1.0597601624120832,1696619074687411267,
0.08908796310424805,-0.3379644751548767,1.03388205351742,1696619074697449833,
0.16783928871154785,0.33928078413009644,0.8498717609570233,1696619074709799390,
-0.004839301109313965,0.5195863246917725,1.3535440295810088,1696619074717490131,
-0.4179544448852539,0.6905101537704468,1.0200637616706272,1696619074727533619,
-0.35639965534210205,0.015498995780944824,1.0192668676588221,1696619074737487673,
0.32648736238479614,0.14509248733520508,1.0130945571965706,1696619074747533982,
0.6002618074417114,0.7665261626243591,0.9787227904909579,1696619074757866507,
0.5378283262252808,0.3742382526397705,1.0104151803144485,1696619074767740403,
-0.3259410858154297,0.3572853207588196,1.1282623685681903,1696619074776568011,
-0.3674165606498718,-0.07508468627929688,0.7335234527493172,1696619074790273251,
-0.20272159576416016,0.016246438026428223,1.3991892338332603,1696619074797534864,
0.43015384674072266,0.3367338180541992,1.1211558243525306,1696619074806584944,
0.30587756633758545,0.22186487913131714,0.9104590141952745,1696619074817638651,
-0.3783731460571289,0.6794118285179138,0.9989648719220353,1696619074827607512,
-0.4217875003814697,0.45627737045288086,0.9617751743815214,1696619074837874398,
-0.513047456741333,-0.04190230369567871,1.0050512120696955,1696619074847681483,
0.24643677473068237,0.16118699312210083,1.0932894596280296,1696619074856682164,
0.1096944808959961,0.7572069764137268,0.7430827113303863,1696619074869887545,
-0.23859739303588867,0.017415523529052734,1.2461022971036881,1696619074877726082,
-0.3753240704536438,-0.2102835774421692,0.9770623100503355,1696619074887766506,
-0.09972840547561646,0.4086969494819641,0.993056640164745,1696619074897691325,
0.30677926540374756,0.735034704208374,0.982135916092017,1696619074907711411,
0.3893541097640991,0.7455238103866577,1.0260450966927464,1696619074917272394,
-0.16232085227966309,-0.052657902240753174,0.9393621385238006,1696619074927702035,
0.1528608798980713,0.008132338523864746,0.9853975485662948,1696619074937724483,
0.07514619827270508,0.488466739654541,0.8051187629888957,1696619074950082871,
0.027750372886657715,0.1757948398590088,1.2898767357362564,1696619074957722147,
-0.35610538721084595,0.446682333946228,0.9644485060422999,1696619074967815966,
-0.4470328092575073,0.19694864749908447,0.9575217051125695,1696619074977900498,
0.047194480895996094,0.30589592456817627,0.9730367802668063,1696619074987820997,
0.22153431177139282,0.519242525100708,0.9360549553965305,1696619074998215665,
0.8295769691467285,0.006779611110687256,1.024322977382048,1696619075007791312,
-0.03978991508483887,0.27132928371429443,0.9911569519324015,1696619075017830431,
-0.36936813592910767,0.04100161790847778,0.8155273392925921,1696619075030151837,
-0.3666999936103821,-0.026950478553771973,1.3151826087043725,1696619075037820011,
-0.4648571014404297,0.3897395730018616,1.0028078418825799,1696619075047871691,
0.17909252643585205,0.3042891025543213,0.9934003200073435,1696619075057917753,
0.5345537066459656,0.9499892592430115,0.9737329575802507,1696619075068052915,
-0.2011660933494568,0.2919034957885742,0.9681173918570838,1696619075078173236,
0.21864181756973267,0.4786732792854309,1.012722227906617,1696619075087894157,
0.19385755062103271,0.5332579016685486,0.9792480630420051,1696619075097924841,
-0.06345856189727783,-0.19059044122695923,0.7636935318410679,1696619075110673327,
-0.21661853790283203,-0.01503896713256836,1.2999341980725667,1696619075118159176,
-0.4985775947570801,-0.28460097312927246,0.9760226981154148,1696619075128115216,
0.09708452224731445,0.3873057961463928,0.9768608706510291,1696619075138028303,
0.5321070551872253,0.9508976340293884,0.9558659320119592,1696619075147996569,
0.9583417773246765,0.5861972570419312,0.9344956722327077,1696619075158030652,
0.08399683237075806,0.5608335137367249,0.9306357395072904,1696619075168017315,
-0.2290312647819519,-0.22442376613616943,0.9244092568272896,1696619075178016886,
-0.4676607847213745,0.02949601411819458,0.7842393531753138,1696619075189906559,
-0.34774017333984375,0.08983433246612549,1.1538894576455474,1696619075198007367,
-0.11094719171524048,-0.32691943645477295,0.9317216015880019,1696619075208080842,
-0.2726185917854309,0.33154457807540894,0.9442150264410466,1696619075218067359,
-0.033959269523620605,0.42462313175201416,0.9342196820107235,1696619075228125720,
-0.011534571647644043,0.8068609833717346,0.8955398034584166,1696619075238605593,
0.11078184843063354,0.7717992663383484,0.9823424564232176,1696619075248109468,
-0.12267845869064331,0.19882965087890625,0.9375680876000004,1696619075258105787,
-0.13825809955596924,0.5172348022460938,0.8001653678615589,1696619075269879628,
-0.21174591779708862,0.15363776683807373,1.1514018492139815,1696619075278104971,
0.021642684936523438,0.2611377239227295,0.9591188519529882,1696619075288130594,
0.3013126254081726,0.22653907537460327,0.9606358625778146,1696619075298168242,
0.15725266933441162,-0.2931222915649414,0.9582189368840297,1696619075308206868,
-0.16362333297729492,0.3579067587852478,0.950158775773532,1696619075318307971,
-0.3007791042327881,0.7229179739952087,0.968135139807449,1696619075328189422,
0.08854573965072632,0.45145291090011597,0.9447754484762401,1696619075338322470,
0.4656144976615906,0.09299826622009277,0.8077386713606489,1696619075350175018,
0.4335530996322632,0.012307167053222656,1.194455121620308,1696619075358217705,
0.0115090012550354,0.716573178768158,0.942697508230952,1696619075368327465,
-0.1894330382347107,0.3414331078529358,0.9405823665026163,1696619075378311749,
-0.19548356533050537,0.26768648624420166,0.9139177296898698,1696619075388507374,
-0.04409664869308472,0.32111912965774536,0.9392414513256164,1696619075398338690,
0.12979936599731445,0.4308394193649292,0.9271433985773326,1696619075408294441,
0.04404681921005249,-0.039701998233795166,0.9188743129651812,1696619075418468223,
-0.04507488012313843,0.004111111164093018,0.7968953503745312,1696619075430338546,
-0.054124534130096436,0.3705078959465027,1.1934101567364488,1696619075438287791,
0.025065958499908447,0.2908633351325989,0.9376275938683689,1696619075448343533,
-0.06568485498428345,0.3173220157623291,0.9294235695947982,1696619075458362458,
0.25688403844833374,0.15405595302581787,0.9143922350674543,1696619075468359535,
0.18271023035049438,0.7300151586532593,0.89568454130312,1696619075478380821,
-0.15976113080978394,0.7178901433944702,0.8922311910427511,1696619075488360510,
-0.15169525146484375,-0.22332680225372314,0.8989394421881083,1696619075498359928,
-0.06636416912078857,-0.06430089473724365,0.7854828483037696,1696619075510068496,
-0.0310518741607666,0.07448124885559082,1.1083692041578246,1696619075518534766,
-0.181382954120636,0.5890296697616577,0.9577402183585041,1696619075528416444,
-0.4064769148826599,0.6157580614089966,0.9344310001108035,1696619075538494204,
-0.26747846603393555,0.08162063360214233,0.9417960897389246,1696619075548453788,
0.09429335594177246,0.5197047591209412,0.9190704430752545,1696619075558667289,
0.6247232556343079,0.38306504487991333,1.0537413448970825,1696619075567565541,
0.6147738695144653,0.9331275820732117,0.859805989879256,1696619075578458199,
0.034129202365875244,0.32712841033935547,0.7973803082961592,1696619075590104464,
-0.2191208004951477,-0.580915093421936,1.109154986421545,1696619075598482907,
-0.2397700548171997,0.051810503005981445,0.9326381724857851,1696619075608481403,
-0.2224751114845276,0.2853791117668152,0.9168035254351075,1696619075618583515,
-0.10305476188659668,0.4529493451118469,1.0342235728839815,1696619075627550209,
-0.3578673005104065,0.030060231685638428,0.8166703726239347,1696619075638972001,
0.2528286576271057,-0.13944923877716064,1.0971835661498246,1696619075647552903,
0.4680928587913513,0.9092747569084167,0.8486637887536136,1696619075658670169,
0.2942100167274475,0.4971020817756653,0.8047325504745527,1696619075670186321,
-0.26429152488708496,0.43858635425567627,1.2406454096096484,1696619075677577881,
-0.17930537462234497,-0.00022977590560913086,0.8133349605591057,1696619075688846078,
-0.0185701847076416,-0.10202085971832275,0.9341331013019315,1696619075698652293,
0.17098522186279297,0.6007052063941956,0.8882622569167112,1696619075708863523,
-0.10852557420730591,0.3523229956626892,0.9087695536947764,1696619075718701308,
-0.3170681595802307,0.055464208126068115,0.8866730790958809,1696619075728731317,
0.13286525011062622,-0.17923575639724731,0.8805032963945232,1696619075738797404,
-0.058438003063201904,0.17186248302459717,0.7656658962189973,1696619075750341313,
-0.3473781943321228,1.0037329196929932,1.0490121461263937,1696619075758660454,
-0.21685612201690674,0.5181708931922913,0.8641607614227486,1696619075768724221,
0.07341641187667847,-0.09185457229614258,0.9376144122718777,1696619075787863897,
0.07486814260482788,0.8811758160591125,0.8691137146168282,1696619075808755727,
-0.26982802152633667,0.23729795217514038,0.89627031588542,1696619075818738038,
0.17173480987548828,-0.24996858835220337,0.798238196659165,1696619075830025593,
0.015417158603668213,-0.011520922183990479,1.0454944273582671,1696619075838776555,
0.22469067573547363,0.6526809334754944,0.8921928704165945,1696619075849043030,
-0.07232004404067993,-0.2822929620742798,0.9203527325996229,1696619075869018871,
0.11743152141571045,-0.07322812080383301,0.9491682896092022,1696619075878911996,
0.18371111154556274,0.4962899088859558,0.9336850762546299,1696619075888938736,
0.31664931774139404,0.9204851388931274,0.9227357766939244,1696619075898947083,
-0.10809981822967529,-0.43197429180145264,0.8289497947574096,1696619075909943869,
-0.2787364721298218,0.0018734931945800781,1.0089101930051736,1696619075919011381,
0.01846301555633545,0.4243386387825012,0.9249046185876867,1696619075928891333,
-0.1924179196357727,0.26600682735443115,0.6775755665287293,1696619075942276936,
-0.2321508526802063,0.10806769132614136,1.3585889191466989,1696619075948948643,
-0.01621091365814209,-0.22853875160217285,0.9102606680800941,1696619075958936284,
0.38372480869293213,0.798405110836029,0.9156626883487777,1696619075968929876,
0.1978890299797058,0.809554398059845,0.9036864162978798,1696619075978948748,
-0.3020719885826111,0.19662147760391235,0.8050011142795064,1696619075989989246,
0.02920132875442505,0.01631718873977661,0.9714344095825149,1696619075999114118,
-0.10543131828308105,-0.17797237634658813,0.9020986047238461,1696619076008981705,
0.10158324241638184,0.7517881989479065,0.705884368694735,1696619076021634350,
-0.06172144412994385,0.46710628271102905,1.2057783275814051,1696619076028978858,
0.26196664571762085,-0.14287090301513672,0.8791607010513137,1696619076039020283,
-0.1227031946182251,0.2822790741920471,0.881955377341432,1696619076049108228,
0.07627463340759277,0.08815675973892212,0.8975210857268948,1696619076059045443,
0.1451994776725769,0.8564950823783875,0.777181523390342,1696619076070492645,
-0.16927564144134521,0.3835829496383667,1.0239436441242886,1696619076079066043,
-0.036481380462646484,-0.24454855918884277,0.8740350295098617,1696619076089104209,
-0.40668976306915283,0.19545644521713257,0.6858927765395185,1696619076102077627,
0.07332116365432739,0.19723117351531982,1.2773646005937953,1696619076109107661,
0.2696385383605957,0.5457794070243835,0.9007598382792757,1696619076119153160,
-0.1956833004951477,0.24143898487091064,0.9036885744416613,1696619076129124452,
-0.057019829750061035,0.29065585136413574,0.9007842977612383,1696619076139127860,
0.4423310160636902,0.7785599231719971,0.8263697503776819,1696619076150096486,
0.04156303405761719,0.17655211687088013,0.9836581458948405,1696619076159277623,
-0.23711836338043213,0.266659140586853,0.9083422868494322,1696619076169195760,
-0.1629338264465332,0.03289008140563965,0.7020323749314982,1696619076181991948,
-0.27224910259246826,0.2150399088859558,1.2358296186772222,1696619076189192110,
0.0007163286209106445,0.3944416642189026,0.8624002731934688,1696619076199257598,
0.16765475273132324,-0.011839032173156738,0.8478061237737023,1696619076209207405,
0.3263765573501587,0.4122399687767029,0.8327572987603022,1696619076219258678,
0.21369487047195435,0.4676043391227722,0.7638565109375071,1696619076230277756,
-0.09360909461975098,0.210313618183136,0.9425059678824043,1696619076239250300,
-0.28110724687576294,-0.1652175784111023,0.8283986746737478,1696619076249483647,
-0.35241323709487915,0.6583499312400818,0.8464453419368926,1696619076269412559,
-0.149985671043396,0.273945152759552,0.8397033709550601,1696619076279323190,
0.2680174708366394,0.009149909019470215,0.832000817041462,1696619076289307669,
0.17073583602905273,0.5491214394569397,0.8313385726607688,1696619076299298447,
0.07205677032470703,0.6625924110412598,0.7854836934831005,1696619076309892578,
-0.071047842502594,0.3061050772666931,0.8878363883163045,1696619076319337454,
0.34859955310821533,-0.26670902967453003,0.8493098281780247,1696619076329387168,
0.0021901726722717285,0.17658627033233643,0.6602227744666966,1696619076342409070,
-0.17012089490890503,0.6276402473449707,1.2284347133270803,1696619076349363590,
-0.0029607415199279785,-0.1104922890663147,0.8472183401126075,1696619076359420404,
0.2483842372894287,0.18372517824172974,0.8483545481842372,1696619076369379978,
-0.08600360155105591,0.4291200041770935,0.8363605283762553,1696619076379457797,
0.012288212776184082,0.7781031131744385,0.7812880915881025,1696619076390368446,
0.060125887393951416,0.22044742107391357,0.9618592933704905,1696619076399436306,
-0.1455211043357849,-0.4743648171424866,0.8854559921480015,1696619076409529005,
0.32704460620880127,0.33746063709259033,0.7111835322740673,1696619076422116032,
-0.3164038062095642,0.33355432748794556,1.1858059070772355,1696619076429608667,
-0.26942193508148193,-0.10092145204544067,0.8368249108845783,1696619076440175044,
0.1388891339302063,0.025189578533172607,0.8887244369411444,1696619076450074124,
0.3272510766983032,1.4330381155014038,0.8685942543099625,1696619076460049861,
0.056671738624572754,0.6919489502906799,0.8335140984395233,1696619076470083297,
-0.17179971933364868,-0.2749577760696411,0.8224870244646413,1696619076480061435,
-0.18993359804153442,-0.22403448820114136,0.8111615279420505,1696619076490295454,
-0.43852174282073975,0.9850085973739624,0.8375060157000558,1696619076510053251,
-0.07285153865814209,-0.5068719387054443,0.8157554087893472,1696619076520107873,
0.35442423820495605,-0.7270878553390503,0.8310564125934399,1696619076530091983,
0.5304014086723328,0.59485924243927,0.8380271131957859,1696619076540121148,
-0.14519810676574707,1.0549030303955078,0.8274107061051094,1696619076550160295,
-0.0856778621673584,0.7283438444137573,0.8133643430273493,1696619076560096241,
-0.09614455699920654,-0.6165995597839355,0.8124076363433366,1696619076570075217,
-0.14784687757492065,-0.08843863010406494,0.6701198657774203,1696619076582458534,
0.016160249710083008,1.416913390159607,1.086369727628715,1696619076590120297,
-0.042613863945007324,0.4399891495704651,0.8282506052502379,1696619076600112338,
0.11707764863967896,-0.550290048122406,0.8261706621752832,1696619076610066618,
-0.09624922275543213,-0.6847116947174072,0.8242956306384639,1696619076620106837,
-0.004761338233947754,1.067568302154541,0.7983541775546646,1696619076630466565,
-0.22761791944503784,1.5372313261032104,0.8486946690227019,1696619076640105812,
-0.09676694869995117,-0.6059899926185608,0.7861975566649779,1696619076650440427,
0.19702816009521484,0.5802361369132996,0.7223947134907165,1696619076662012263,
0.19702816009521484,0.5802361369132996,1.0667473297349965,1696619076670093840,
-0.02983856201171875,1.4488883018493652,0.8747138560457534,1696619076679779995,
-0.22403311729431152,0.24909621477127075,0.9177281948320667,1696619076688806666,
-0.13312244415283203,-1.0846458673477173,0.8182066412087052,1696619076698837705,
0.3462756872177124,0.5541789531707764,0.700871107329525,1696619076710625167,
0.2882463335990906,1.5555109977722168,0.8883123275352298,1696619076719824680,
-0.20214754343032837,0.48152196407318115,0.8032858204249792,1696619076729843438,
-0.017033278942108154,-0.9510879516601562,0.6623768721711715,1696619076742107059,
0.010766983032226562,-0.5856853723526001,1.0780012697027188,1696619076749832705,
0.14211881160736084,1.5732917785644531,0.8098913957749921,1696619076760117396,
-0.14445143938064575,1.0771373510360718,0.8275504231353484,1696619076769897956,
-0.2601887583732605,-0.7373895049095154,0.8050744155553043,1696619076779839300,
-0.10307830572128296,-0.6132707595825195,0.7728676585574351,1696619076790277718,
0.2041102647781372,0.7488077282905579,0.8420388490576515,1696619076799882760,
0.06944751739501953,1.585814356803894,0.7939863636981209,1696619076809895371,
-0.12523531913757324,-0.45377689599990845,0.6494750624818342,1696619076822134842,
0.21911472082138062,-1.034372091293335,1.055954778739519,1696619076829912806,
-0.13297826051712036,0.4872700572013855,0.8307157449127972,1696619076839935619,
-0.19186413288116455,1.3129411935806274,0.8179441266384366,1696619076849975928,
-0.3190164566040039,0.636081874370575,0.8115383461881372,1696619076859941342,
-0.0010529160499572754,-0.7487524151802063,0.7915746304583887,1696619076870239682,
0.5729984045028687,0.19877028465270996,0.8470140609855887,1696619076879996593,
0.372880220413208,1.4950215816497803,0.8135476687743001,1696619076890021649,
-0.09116727113723755,0.4791069030761719,0.6346926281472672,1696619076902735060,
0.115867018699646,-0.5875030159950256,1.1284908101282891,1696619076909999101,
-0.017885804176330566,-0.6381375193595886,0.8087476628539595,1696619076920361775,
-0.09163928031921387,0.8233665823936462,0.8548558041132891,1696619076930143584,
-0.15871459245681763,-0.402540385723114,0.8051210177917384,1696619076940345787,
0.4843944311141968,-0.20302724838256836,0.8404089621001452,1696619076950212292,
0.17935359477996826,0.41394180059432983,0.8415471337202106,1696619076960270848,
0.22334927320480347,0.8547960519790649,0.8589128957346193,1696619076970102139,
-0.3703728914260864,0.09693670272827148,0.6786873001710374,1696619076982333729,
-0.1717330813407898,-0.6062749624252319,1.0558770806914741,1696619076990124082,
-0.08953362703323364,0.7028934359550476,0.8241662825662511,1696619077000144707,
0.0685502290725708,0.8261415958404541,0.8091188685588581,1696619077010213622,
0.1123499870300293,0.5381144285202026,0.801258375736324,1696619077020154142,
-0.2234463095664978,-0.0913342833518982,0.8418165773677302,1696619077029565655,
0.32542550563812256,0.05738985538482666,0.7511230849631044,1696619077040196846,
-0.05695837736129761,0.7831369042396545,0.799959770168765,1696619077050218630,
-0.09181714057922363,-0.027373015880584717,0.5971266715768617,1696619077063490641,
-0.4997427463531494,-0.48305386304855347,1.1833034021899456,1696619077070215309,
-0.12458270788192749,0.11435133218765259,0.8052986270498124,1696619077080236564,
0.22549325227737427,0.390686571598053,0.8032308540154288,1696619077090302616,
0.0313299298286438,0.5786356329917908,0.8016162148896507,1696619077100233539,
-0.18469339609146118,-0.15998989343643188,0.7890271441535873,1696619077110326795,
0.2214745283126831,0.7288603186607361,0.8094224470841703,1696619077120271499,
0.22963237762451172,0.858810544013977,0.8026354528418245,1696619077130286093,
-0.057244181632995605,0.08290773630142212,0.6783937088195288,1696619077142078259,
-0.13528352975845337,0.032031357288360596,0.9760924505870864,1696619077150284488,
-0.12950849533081055,-0.17445039749145508,0.8043413689316766,1696619077160306254,
0.08713001012802124,0.6545089483261108,0.7983404681387355,1696619077170346744,
-0.3865378499031067,0.5101227760314941,0.7874357115331413,1696619077180311239,
0.30781376361846924,-0.22217178344726562,0.7767937027032907,1696619077190344181,
0.5179896950721741,0.35101789236068726,0.7844954847636221,1696619077200368615,
0.32104742527008057,0.27740490436553955,0.7893659525741101,1696619077210390051,
-0.353002667427063,0.7657506465911865,0.6506924809784915,1696619077222622086,
-0.5046930909156799,-0.23956000804901123,1.0260150667936538,1696619077230377284,
-0.12662214040756226,-0.5858106017112732,0.7971535435629944,1696619077240422542,
0.28398680686950684,0.7254401445388794,0.7961361596933808,1696619077250438173,
0.016322791576385498,0.5793670415878296,0.7792282212152319,1696619077260478050,
-0.30106788873672485,0.2311195731163025,0.7715819204160939,1696619077270484599,
-0.12374436855316162,-0.13601946830749512,0.766076264052088,1696619077280438935,
-0.10426598787307739,0.23230993747711182,0.75596590459565,1696619077290476896,
0.22660648822784424,1.3573857545852661,0.6424447097488767,1696619077302107087,
0.20531457662582397,0.16429495811462402,0.8881666373508856,1696619077310458779,
0.06857377290725708,-0.33647340536117554,0.7514786902949364,1696619077320499394,
-0.10946983098983765,0.04565984010696411,0.8353362592824428,1696619077329567825,
-0.24208170175552368,0.4320369362831116,0.6900043581375066,1696619077340504366,
-0.4231991767883301,0.5837357044219971,0.7297528329247089,1696619077350776072,
-0.00014001131057739258,-0.7255585193634033,0.8647707442491349,1696619077359542809,
0.6286436915397644,0.13614070415496826,0.7108512922756183,1696619077370608092,
0.26965129375457764,1.204160451889038,0.6928590627009016,1696619077382116056,
-0.30974167585372925,0.4627741575241089,1.0684155950709204,1696619077389563857,
-0.14738702774047852,-0.18091106414794922,0.794533308399569,1696619077399566454,
0.013923466205596924,-0.3979760408401489,0.7175206096752973,1696619077410625821,
-0.03588986396789551,0.9577438235282898,0.7864557549293495,1696619077420608922,
-0.3827524781227112,1.1184391975402832,0.7592858221206249,1696619077430743423,
-0.001986265182495117,-0.31534087657928467,0.7669215862787836,1696619077440819760,
0.7728884816169739,-0.0670430064201355,0.7962263036384767,1696619077450679643,
-0.23575711250305176,0.7986019253730774,0.653688589816435,1696619077462689446,
-0.3334529995918274,-0.2901463508605957,0.9741832134575484,1696619077470741833,
0.020968377590179443,-0.8596983551979065,0.7887090831301901,1696619077480710698,
-0.03143101930618286,0.8801906108856201,0.791454690837903,1696619077490735608,
-0.21221482753753662,0.9824621677398682,0.7900925242534269,1696619077500678045,
0.16070479154586792,0.04472547769546509,0.7616953500898248,1696619077510754598,
0.34522104263305664,-0.35989630222320557,0.7536308400259699,1696619077520832792,
-0.014717459678649902,0.621061384677887,0.7692512562119633,1696619077530749093,
-0.059648334980010986,1.3733702898025513,0.6405193553717556,1696619077542612956,
-0.008642435073852539,-0.18140572309494019,0.91910211991299,1696619077550751094,
-0.16957104206085205,-0.8402302861213684,0.729055504099341,1696619077561004546,
-0.03233438730239868,0.3697882890701294,0.6219962016967459,1696619077573100618,
0.08217513561248779,1.0044265985488892,0.9710811801115108,1696619077580766625,
0.042399585247039795,0.2802157402038574,0.8025625675525274,1696619077589835143,
-0.3534594178199768,-0.7820921540260315,0.6484903718371761,1696619077600861407,
-0.30676811933517456,0.39377421140670776,0.7219775960209496,1696619077610802414,
0.08225733041763306,1.050441861152649,0.6877799080172065,1696619077621317525,
0.43975830078125,0.002535581588745117,0.8640620338242847,1696619077629812182,
0.057427167892456055,-0.35947883129119873,0.6792380557096596,1696619077640999178,
0.37290072441101074,-0.002955496311187744,0.6331143590342805,1696619077653359440,
-0.17203009128570557,1.1099003553390503,1.0486570136850497,1696619077660844155,
-0.7163177728652954,0.38565880060195923,0.763131570282776,1696619077670905535,
-0.31886225938796997,-0.4576358199119568,0.7566995336514505,1696619077680902793,
-0.057050347328186035,0.6102349162101746,0.7491248670983052,1696619077690920584,
0.3967594504356384,0.7364922165870667,0.6592196073967324,1696619077702154736,
-0.09354186058044434,0.16692215204238892,0.8357222657677006,1696619077710920231,
0.04101872444152832,-0.49970412254333496,0.7255750629519122,1696619077720984616,
-0.023504018783569336,0.07120990753173828,0.5810044609535928,1696619077733781148,
-0.45430314540863037,1.2304879426956177,1.042640978743117,1696619077740949017,
-0.4539536237716675,-0.0050945281982421875,0.7422144477753996,1696619077751008346,
0.23432159423828125,-0.5739624500274658,0.7738545585105978,1696619077761012442,
0.3984410762786865,0.3774552345275879,0.8014386202188529,1696619077771016792,
0.20884597301483154,0.9173741936683655,0.7241166103264747,1696619077782125465,
0.08625990152359009,0.5667635202407837,0.885035885873399,1696619077791019256,
-0.09537148475646973,-0.5407085418701172,0.7570829658856196,1696619077801268082,
-0.231783926486969,0.3617507219314575,0.6130920324876992,1696619077813834114,
0.05138963460922241,1.0697418451309204,1.0107111112205314,1696619077821231760,
-0.13460242748260498,0.06252181529998779,0.7417235610447326,1696619077831082780,
0.3454480767250061,-0.32166409492492676,0.7249389526673423,1696619077841126077,
0.45970284938812256,-0.0589299201965332,0.7255937941777987,1696619077851079212,
0.23482131958007812,0.5069487690925598,0.6938558246540985,1696619077871238388,
-0.4171167016029358,-0.47121816873550415,0.7034510511998511,1696619077881178452,
-0.040600478649139404,0.3198586106300354,0.5623459212213529,1696619077893851827,
0.11913317441940308,0.4400255084037781,0.988652135440194,1696619077901165535,
0.12123489379882812,0.23810213804244995,0.7324114078372067,1696619077911204912,
-0.19514185190200806,0.02674180269241333,0.7406479923473192,1696619077921226170,
-0.2780507802963257,0.17347508668899536,0.748219174956932,1696619077931195348,
0.11904799938201904,0.9247270822525024,0.6777985981015461,1696619077942168760,
-0.0794903039932251,0.29437434673309326,0.8197355193265706,1696619077951234814,
0.011061489582061768,-0.17886477708816528,0.7505741880447824,1696619077961300664,
-0.1126178503036499,0.21246910095214844,0.6056152586611676,1696619077973871698,
-0.3849491477012634,0.7552025318145752,1.0009332704527865,1696619077981446542,
0.02520352602005005,-0.2581310272216797,0.7449045789861729,1696619077991497595,
0.4123063087463379,0.19832611083984375,0.761102399020922,1696619078001329092,
0.1485767364501953,0.779279351234436,0.7605105143417059,1696619078011267775,
-0.11038392782211304,0.1302884817123413,0.6681873818359215,1696619078022617341,
0.14916247129440308,-0.14490127563476562,0.8794568591159515,1696619078031294368,
0.045912742614746094,-0.26682764291763306,0.7599729495405263,1696619078041412521,
0.16887855529785156,0.5905274152755737,0.6099458264861972,1696619078054131981,
-0.6348904967308044,0.677057147026062,1.0718635185262693,1696619078061320525,
-0.18027973175048828,-0.38848280906677246,0.755052455139987,1696619078071371627,
0.5800504088401794,0.11842352151870728,0.7470544479373403,1696619078081454872,
-0.03975707292556763,0.7300130724906921,0.7448268685704903,1696619078091368682,
-0.07055193185806274,1.1103005409240723,0.6681036344267705,1696619078102159045,
0.11607164144515991,-0.12220275402069092,0.7685202287006865,1696619078111399491,
0.07924652099609375,-0.6007645726203918,0.6916080228605317,1696619078121644954,
-0.29495638608932495,0.5960607528686523,0.5956190930278338,1696619078133576909,
-0.30125129222869873,0.20563983917236328,0.9011625733437286,1696619078141404959,
0.11242395639419556,-0.5079479217529297,0.6964602584339258,1696619078151465735,
0.2709280252456665,0.010425209999084473,0.699351855102137,1696619078161454780,
-0.03385645151138306,0.8605846166610718,0.6967933278931516,1696619078171464588,
-0.12646758556365967,1.016679286956787,0.6164363579985186,1696619078182752376,
0.39140135049819946,-0.419173002243042,0.8033351887325908,1696619078191474795,
0.1130681037902832,0.06484675407409668,0.7190020229356645,1696619078201494505,
-0.16876369714736938,0.9009894728660583,0.5785651969249879,1696619078214176782,
-0.13902121782302856,0.27303510904312134,0.9677069883800637,1696619078221775675,
0.3185199499130249,-0.3367180824279785,0.8368594285519754,1696619078230555612,
-0.2177925705909729,-0.2626630663871765,0.7342342738085116,1696619078240556342,
-0.4496329426765442,1.0986409187316895,0.7263757824827625,1696619078250573624,
-0.29923975467681885,0.6178341507911682,0.6154325425550049,1696619078262180802,
0.8295495510101318,-0.4945564866065979,0.8612018468965044,1696619078270554005,
0.34946757555007935,0.5261821746826172,0.664801489296015,1696619078281617006,
-0.20604252815246582,0.6309452652931213,0.5833709223671737,1696619078294285936,
-0.2068234086036682,0.24331659078598022,1.0118354955558515,1696619078301590590,
-0.2908989191055298,-0.4342990517616272,0.7305437629793652,1696619078311643490,
-0.04390132427215576,0.2252335548400879,0.73084903818097,1696619078321684835,
-0.09895575046539307,1.1635063886642456,0.7250750423658194,1696619078331652201,
0.13503366708755493,-0.16668486595153809,0.6742187944351404,1696619078342194498,
0.16497153043746948,-0.39179354906082153,0.7604163820811956,1696619078351666877,
0.01279759407043457,0.5768559575080872,0.7195282113621773,1696619078361722988,
-0.2936156392097473,1.1159712076187134,0.553829380148144,1696619078374642165,
-0.035906314849853516,0.35911643505096436,1.0025996973568212,1696619078381678220,
-0.004949092864990234,-0.9981968998908997,0.6890473687085609,1696619078391933252,
0.0417485237121582,0.09990119934082031,0.7222416077290211,1696619078401769711,
0.06239253282546997,1.0898810625076294,0.6981342487088519,1696619078411762983,
0.1388794183731079,0.06986111402511597,0.658461683721192,1696619078422210500,
0.2699850797653198,-0.12283110618591309,0.7260190010138277,1696619078431757767,
0.20230621099472046,0.09808182716369629,0.7057837055469995,1696619078441789655,
-0.15017318725585938,0.8464369773864746,0.574535685298629,1696619078454205449,
-0.24748623371124268,0.2623135447502136,0.9361664495607798,1696619078461780331,
-0.05148202180862427,-0.5272561311721802,0.7902463274107625,1696619078470843764,
0.3115852475166321,0.5812470316886902,0.6509580566626845,1696619078481906031,
0.21217316389083862,0.6362826228141785,0.7106700512534669,1696619078491956480,
0.3267959952354431,-0.03333383798599243,0.663769975722994,1696619078502641182,
0.06800490617752075,0.43252086639404297,0.758073217887912,1696619078512037880,
-0.35312163829803467,1.0957379341125488,0.80563228509154,1696619078520872020,
-0.3405113220214844,-0.42538344860076904,0.5302111740186711,1696619078534132973,
-0.16834652423858643,-0.487291157245636,0.9273485341080819,1696619078541873019,
-0.05192577838897705,0.5886234641075134,0.7372557914952097,1696619078551914222,
0.10819453001022339,0.4263508915901184,0.7460125650791775,1696619078561924444,
0.3252772092819214,0.08596378564834595,0.7425875495449711,1696619078571965421,
0.02710801362991333,-0.19346463680267334,0.6887267801072893,1696619078582721053,
-0.14423316717147827,0.8251379132270813,0.7711490498119604,1696619078592258448,
0.08078819513320923,0.8053529262542725,0.7346426376137392,1696619078602050566,
-0.0772777795791626,0.09627300500869751,0.7046593221075816,1696619078632015672,
-0.30719178915023804,0.603409469127655,0.6948313592350756,1696619078642043699,
-0.3111107349395752,0.07498317956924438,0.6852262317203075,1696619078652057469,
0.03856712579727173,0.8372622132301331,0.6598341061112271,1696619078672107586,
0.26884448528289795,0.24831271171569824,0.6433561371486292,1696619078682087581,
0.5815725922584534,0.07203823328018188,0.5064446218256615,1696619078694910568,
-0.33735042810440063,-0.05368417501449585,0.9320090794379272,1696619078702089095,
0.010020852088928223,0.4150121808052063,0.6834939697965201,1696619078712142552,
-0.2382550835609436,0.6000139117240906,0.6901969780294172,1696619078722162270,
-0.23976200819015503,-0.17462021112442017,0.6851459362112776,1696619078732170171,
-0.06732171773910522,0.22812879085540771,0.628806466608341,1696619078743117405,
0.030518829822540283,0.59173983335495,0.7490923913436863,1696619078752306153,
0.09385925531387329,0.18067270517349243,0.6915436396219999,1696619078762166057,
-0.08330613374710083,0.2110992670059204,0.5581151655586077,1696619078774259481,
-0.14852553606033325,0.18494290113449097,0.8539238010293296,1696619078782238497,
-0.29444748163223267,0.46082788705825806,0.6887036147144552,1696619078792382216,
0.1886637806892395,-0.216025710105896,0.7174532443009535,1696619078802314739,
0.55637127161026,-0.34784817695617676,0.7233972111182934,1696619078812388176,
0.40076470375061035,0.9233086109161377,0.7060831581482101,1696619078822667260,
-0.2474115490913391,0.6877936720848083,0.7403131390571364,1696619078832254979,
-0.015619516372680664,0.022511541843414307,0.6998860244310757,1696619078842287570,
0.17416810989379883,-0.07655555009841919,0.6120569120284884,1696619078853752449,
-0.014788448810577393,0.5527326464653015,0.7899273031403539,1696619078862631237,
-0.07567542791366577,0.8524298667907715,0.7039471907659433,1696619078872352211,
-0.2092682123184204,-0.608077883720398,0.6718129676561678,1696619078882325962,
-0.512561023235321,-0.2177456021308899,0.6730607797617832,1696619078892346629,
-0.07350969314575195,0.7565609812736511,0.6814163459561613,1696619078902270356,
0.13649243116378784,0.5228180885314941,0.6754266776286498,1696619078912323149,
0.3293342590332031,0.06526464223861694,0.6719668475667511,1696619078922527779,
0.44980645179748535,-0.20260775089263916,0.5865074350690371,1696619078934316167,
-0.4397467374801636,0.6944054365158081,0.8581014472978438,1696619078942342290,
-0.2879006862640381,0.47439074516296387,0.6666899904220946,1696619078952407479,
-0.18037277460098267,-0.5028395652770996,0.6587280702541324,1696619078962410560,
9.876489639282227e-05,0.42987245321273804,0.6525514999387313,1696619078972444083,
0.03270900249481201,0.6680210828781128,0.6524182230245572,1696619078982472778,
0.06967282295227051,0.24116015434265137,0.6540801926384244,1696619078992525824,
0.5266793966293335,-0.20031780004501343,0.6641447891547948,1696619079002497099,
-0.18754947185516357,1.0267747640609741,0.5365938172808307,1696619079014926733,
0.026863574981689453,-0.2848091721534729,0.8711428255542074,1696619079022514583,
-0.08689898252487183,-0.5017210841178894,0.7326640950910004,1696619079031559048,
-0.05312150716781616,0.5814594030380249,0.6194211475633254,1696619079042482204,
-0.20729535818099976,0.45260167121887207,0.6826579457720332,1696619079052481344,
-0.03459322452545166,-0.05533355474472046,0.7501429257754609,1696619079061587849,
0.40413665771484375,-0.07576006650924683,0.6259549227601179,1696619079072500873,
-0.11147034168243408,0.8122401237487793,0.6848986336628925,1696619079082503602,
-0.09390759468078613,0.7329666018486023,0.5844131430267171,1696619079094242122,
-0.15739363431930542,-0.3353229761123657,0.9358322671936644,1696619079101539253,
0.47344350814819336,0.08901017904281616,0.6216429358863245,1696619079112627075,
-0.5671810507774353,0.5219793319702148,0.5541074706857728,1696619079125222964,
-0.1955609917640686,0.3847340941429138,0.9329904709999491,1696619079132651393,
0.0430486798286438,-0.11406165361404419,0.6664028849850134,1696619079142883795,
-0.16634231805801392,0.10556507110595703,0.6943343727225478,1696619079152597863,
0.009414255619049072,0.8074652552604675,0.6718923045766251,1696619079162612356,
0.13562613725662231,0.07005321979522705,0.5666505838220509,1696619079174495212,
0.37905675172805786,-0.05959498882293701,0.8368987343892615,1696619079182629395,
-0.48643696308135986,0.30872905254364014,0.6726620419624798,1696619079192859601,
-0.2882799506187439,0.5806505084037781,0.5572166472550661,1696619079205161713,
-0.10623514652252197,0.09266722202301025,0.8972181757906502,1696619079212713997,
0.20662426948547363,-0.19780534505844116,0.6730081441534786,1696619079222743249,
0.025034427642822266,0.19550758600234985,0.6785233204389735,1696619079232707310,
-0.07204985618591309,0.564068078994751,0.6710688856383695,1696619079242685330,
0.23094028234481812,0.21105438470840454,0.5567378045184367,1696619079254625796,
0.39529043436050415,0.09235066175460815,0.8157484004893497,1696619079262774268,
0.055616915225982666,0.25359034538269043,0.6492433526874282,1696619079272980818,
-0.2925242781639099,0.3064523935317993,0.5216438510445984,1696619079285662994,
0.013907074928283691,-0.11069279909133911,0.9361236800983547,1696619079292788105,
0.17140263319015503,-0.12095504999160767,0.6719844162744997,1696619079302811328,
0.009146392345428467,0.5228394865989685,0.6621425633996351,1696619079312967840,
0.4906536936759949,0.3011671304702759,0.6758695787169554,1696619079322861146,
0.2085515856742859,0.47562748193740845,0.5663838074212493,1696619079334702877,
-0.3658463954925537,0.40775084495544434,0.8358975250412796,1696619079342809327,
0.02071976661682129,0.45493370294570923,0.6793047175570863,1696619079352870370,
-0.12186241149902344,0.24966073036193848,0.7095003932614793,1696619079372100426,
0.17955350875854492,0.016416728496551514,0.6675175954454677,1696619079382084561,
-0.22421234846115112,0.28423887491226196,0.5985583193961236,1696619079392967918,
-0.07809877395629883,0.22455769777297974,0.7231576881603015,1696619079401880796,
0.07731354236602783,0.4402063488960266,0.5104501317080503,1696619079414286077,
0.028939366340637207,-0.12805980443954468,0.7358787277885227,1696619079422919883,
-0.07056093215942383,0.24873048067092896,0.645121128140443,1696619079432992294,
-0.14645826816558838,0.3134833574295044,0.5119997822331936,1696619079445745959,
0.11184287071228027,0.2441476583480835,0.9004267526402235,1696619079452962590,
-0.12877178192138672,0.5176782011985779,0.637681810951412,1696619079462985939,
-0.06377792358398438,-0.09103894233703613,0.6288649318660693,1696619079473030411,
-0.08160918951034546,0.3183683156967163,0.630840606823533,1696619079482967745,
0.010998368263244629,0.5912817716598511,0.5429490133510041,1696619079494316327,
0.11430597305297852,0.2744240164756775,0.7075387846565457,1696619079503025806,
0.2711537480354309,0.16750210523605347,0.6168410994087492,1696619079513152815,
-0.10941731929779053,-0.18594354391098022,0.4997846743301548,1696619079526061133,
0.17840898036956787,0.5144652724266052,0.9159251243271473,1696619079533273455,
-0.2643929719924927,-0.669106125831604,0.6617432222084675,1696619079543297423,
0.46117955446243286,0.035289883613586426,0.6838763240662658,1696619079553144898,
-0.1048579216003418,0.6528909206390381,0.6781439292194298,1696619079563122093,
-0.2638627290725708,0.8811488747596741,0.5871378400694346,1696619079574480775,
0.014413714408874512,-0.0005003213882446289,0.7573548640372378,1696619079583110585,
0.12561935186386108,-0.1999395489692688,0.6242606503733455,1696619079593450838,
0.16386646032333374,1.0569264888763428,0.5070739734124459,1696619079606263339,
-0.4284065365791321,0.39858102798461914,0.9202813568868946,1696619079613235679,
-0.14344608783721924,-0.3935220241546631,0.6311786518958024,1696619079623199681,
-0.028784632682800293,0.12771958112716675,0.6322605961119842,1696619079633233569,
-0.019380390644073486,0.30378615856170654,0.6460173466860217,1696619079643180377,
0.2628437280654907,0.2793274521827698,0.5545876130836532,1696619079654794663,
0.2825515866279602,-0.4400044083595276,0.7638049943359084,1696619079663233239,
0.13602983951568604,0.5443575978279114,0.6403126629865856,1696619079673338060,
-0.39594757556915283,0.5312871932983398,0.5016236201990556,1696619079686108083,
-0.24637103080749512,-0.30912870168685913,0.8834292269004692,1696619079693276189,
0.17382532358169556,0.3487740755081177,0.6319512741615716,1696619079703289148,
-0.2105814814567566,0.5468737483024597,0.6699085933000591,1696619079712664122,
-0.15771448612213135,0.3370612859725952,0.5866917040170562,1696619079723306433,
0.07914263010025024,-0.07599526643753052,0.6064877169272027,1696619079733583570,
0.7609869241714478,0.42406564950942993,0.6398230219901282,1696619079743280597,
-0.5726131796836853,0.9561752080917358,0.5909050521093532,1696619079753681523,
0.5729512572288513,-0.5054637789726257,0.6291603429027716,1696619079773523035,
0.11749756336212158,0.5486802458763123,0.6542716533985404,1696619079783366302,
-0.23849570751190186,0.5443037748336792,0.6390721311202896,1696619079793443957,
-0.19505882263183594,0.09491336345672607,0.6451106434032745,1696619079803378498,
0.6338064670562744,-0.28351354598999023,0.5673945375171903,1696619079814670856,
-0.213667631149292,0.9565744400024414,0.7299391247020829,1696619079823426410,
-0.3583373427391052,0.7087971568107605,0.6243009362337222,1696619079833449219,
0.11237072944641113,-0.5485857725143433,0.4778153707100101,1696619079846523545,
0.394916832447052,0.2588954567909241,0.9240863133911789,1696619079853427902,
-0.1922898292541504,0.6475815773010254,0.6462360998513864,1696619079863457314,
-0.4370546340942383,0.22014844417572021,0.64551653705907,1696619079873591338,
0.15170669555664062,-0.21519142389297485,0.6671295043239237,1696619079883454056,
0.36019933223724365,0.06391417980194092,0.6101669926549949,1696619079894396980,
-0.0757020115852356,1.0148059129714966,0.7379321211881936,1696619079903474356,
0.10496187210083008,-0.13084113597869873,0.6550218549970005,1696619079913519323,
0.6253659129142761,-0.2724849581718445,0.5051395798750172,1696619079926457293,
-0.13575410842895508,0.4988365173339844,0.9164229943266878,1696619079933495946,
-0.8204590678215027,0.4511829614639282,0.6883708887714061,1696619079942664848,
0.16500604152679443,0.2717100977897644,0.6254275463195789,1696619079952621556,
0.3677310347557068,-0.08512657880783081,0.5600525930802696,1696619079963789675,
-0.07256615161895752,0.38598108291625977,0.5790283405414649,1696619079974782430,
-0.14025312662124634,0.3347652554512024,0.7107138527606788,1696619079983716844,
0.30943018198013306,-0.029662489891052246,0.6324254655989671,1696619079993679149,
0.16188907623291016,0.710250198841095,0.4997335301192787,1696619080006135527,
-0.6299823522567749,0.15652912855148315,0.8113534471672406,1696619080013709947,
-0.48430442810058594,-0.48051977157592773,0.6148019297669354,1696619080023757912,
0.17270267009735107,-0.06635445356369019,0.6258562171549633,1696619080033758200,
0.0646163821220398,0.2843107581138611,0.6299285922583393,1696619080043787221,
0.14015227556228638,-0.02235335111618042,0.5817094420300745,1696619080054636186,
0.2249222993850708,0.5063665509223938,0.6848134987061504,1696619080063874375,
0.15022015571594238,0.8313266634941101,0.6443260676601757,1696619080073761604,
-0.29020339250564575,-0.010106444358825684,0.4965943974178172,1696619080086487150,
0.5785958766937256,-0.18394112586975098,0.8647927148671972,1696619080093745588,
-0.1272881031036377,0.03332066535949707,0.6262065681523706,1696619080103772349,
-0.4533369541168213,0.6087624430656433,0.6203007145154905,1696619080113808212,
-0.0700911283493042,0.23438233137130737,0.6091443888010661,1696619080123826970,
0.3906053304672241,-0.1512203812599182,0.5714910182461699,1696619080134339858,
0.12270092964172363,0.708135724067688,0.6375879340074708,1696619080143814025,
0.2522786855697632,0.32775670289993286,0.6084755456300969,1696619080153829008,
0.40643465518951416,-0.02845829725265503,0.6190514245434958,1696619080173890127,
-0.2287987470626831,0.3832017779350281,0.6246152588280747,1696619080183950342,
-0.20410937070846558,0.47552281618118286,0.6256785693043346,1696619080193867248,
0.19340550899505615,-0.1725640892982483,0.6100471713264856,1696619080203836199,
-0.23599863052368164,0.2527884840965271,0.5587416516389562,1696619080214652816,
-0.18785536289215088,0.7824864387512207,0.6469861539954823,1696619080223894758,
0.09124267101287842,0.17778974771499634,0.5749325491919655,1696619080234139090,
-0.13980621099472046,0.2345563769340515,0.48776446085137354,1696619080246175338,
-0.16992050409317017,-0.01865142583847046,0.8876082648223084,1696619080252918793,
0.082741379737854,0.1555161476135254,0.5535801895163582,1696619080264082505,
0.2548113465309143,-0.130060076713562,0.6998455258216495,1696619080272997049,
0.41536664962768555,-0.09908562898635864,0.6243925873545494,1696619080282950842,
-0.34143543243408203,0.8230171799659729,0.5175276963319659,1696619080294815352,
-0.232357919216156,0.24849504232406616,0.7451105679889793,1696619080302933428,
0.3374341130256653,0.08634024858474731,0.5529874468065357,1696619080313979215,
-0.021973073482513428,0.6063999533653259,0.5110882803272533,1696619080326098783,
0.06923800706863403,0.6373602747917175,0.7890595344305956,1696619080333974441,
0.065967857837677,0.1460137963294983,0.5998858435190164,1696619080344221698,
-0.01581418514251709,-0.46998435258865356,0.6135367947350415,1696619080354086743,
0.050230443477630615,0.1812068223953247,0.6059057716621992,1696619080364017871,
0.06816965341567993,0.4267377257347107,0.5610939173489871,1696619080374679342,
-0.052499353885650635,-0.3428913950920105,0.621706100739889,1696619080384360280,
0.3979799747467041,0.4419625997543335,0.6298301282867498,1696619080394033183,
-0.14068293571472168,0.5320234298706055,0.5046670248105968,1696619080406175843,
-0.25620245933532715,0.03359699249267578,0.7783745520265264,1696619080414123251,
-0.08977645635604858,0.06371062994003296,0.6185224787528729,1696619080424116558,
-0.15140622854232788,0.4521564245223999,0.611838714452809,1696619080434166937,
-0.13135385513305664,0.7972381711006165,0.6106835252552408,1696619080444141725,
-0.41479820013046265,-0.29251229763031006,0.5901159378122066,1696619080454321980,
0.00027257204055786133,0.028565287590026855,0.6081096983378754,1696619080464174234,
0.17885422706604004,0.9380942583084106,0.5898327870620923,1696619080474377992,
-0.24704307317733765,0.16133642196655273,0.48247089437906315,1696619080487127880,
0.6231008768081665,-0.19565528631210327,0.8917595926492224,1696619080494198336,
0.3386690020561218,-0.1768510937690735,0.6353301765442181,1696619080504273570,
-0.3954962491989136,0.36320579051971436,0.6418870252325466,1696619080514245270,
-0.5884928107261658,0.22036010026931763,0.6159071177425112,1696619080524368237,
-0.4079745411872864,-0.5721874237060547,0.6046306408739364,1696619080534358556,
1.1213313341140747,0.7047848105430603,0.5850899944177664,1696619080544399668,
-1.2408359050750732,0.6575536727905273,0.5720345058883994,1696619080554345239,
0.3728495240211487,0.33306777477264404,0.47197086811477235,1696619080566157216,
-0.23877817392349243,0.4836164712905884,0.6917542394922831,1696619080574344812,
1.1523958444595337,0.620568573474884,0.5939012030133832,1696619080584367782,
0.13603347539901733,-0.31595736742019653,0.6179198050287253,1696619080594392953,
0.7845478057861328,-0.40357154607772827,0.6274451273879966,1696619080604455422,
0.9104485511779785,0.425101101398468,0.6179944454219939,1696619080614756371,
-0.21958082914352417,-0.0699622631072998,0.6422857477857801,1696619080624382859,
0.5886455178260803,0.11837577819824219,0.5993203618889419,1696619080634349717,
0.0522998571395874,0.17007917165756226,0.4960145802188445,1696619080646285185,
-0.6763361096382141,0.5093393325805664,0.7273916031360195,1696619080654405701,
-1.0681575536727905,0.15593987703323364,0.5815385770250319,1696619080664463774,
-0.17597699165344238,0.1654660701751709,0.5745711135466391,1696619080674455070,
-0.6378154754638672,0.4452817440032959,0.5636889491842063,1696619080684498597,
-0.6673133969306946,0.07020992040634155,0.5621251717935031,1696619080694472244,
0.7106167078018188,-0.010311245918273926,0.5564569686234015,1696619080704480935,
1.0125248432159424,0.5498552918434143,0.540276679213146,1696619080714733087,
0.06185179948806763,0.40149903297424316,0.4834270956548168,1696619080726145188,
-0.9814892411231995,-0.2922019958496094,0.6615727089525765,1696619080734456118,
-0.18774718046188354,-0.43332260847091675,0.5168255739243447,1696619080745188675,
-0.20859050750732422,0.4247039556503296,0.6135385623759283,1696619080754532715,
-0.27994638681411743,0.8275148272514343,0.552486466306957,1696619080765215518,
0.6533368229866028,-0.04799586534500122,0.6038055164611447,1696619080775231827,
1.125492811203003,0.15683603286743164,0.6102215338287805,1696619080785209898,
-0.2371717095375061,0.5471945405006409,0.5995066507723666,1696619080795166864,
0.4165217876434326,0.1810518503189087,0.5610414225872188,1696619080815229753,
-0.3351731300354004,-0.20296919345855713,0.5315500827803359,1696619080825330208,
-0.2906016707420349,-0.0007634758949279785,0.5893011834374284,1696619080834596898,
0.13172179460525513,-0.0720515251159668,0.5228728493571909,1696619080845248953,
0.7713533639907837,0.031680941581726074,0.5609229018115864,1696619080855272135,
-0.048854708671569824,0.572239875793457,0.5688056095967075,1696619080865253361,
-0.6765722632408142,0.038238584995269775,0.5571531110737324,1696619080875408906,
0.2584012746810913,0.5154623985290527,0.5196151540346411,1696619080886188326,
0.5894087553024292,0.6449229121208191,0.6157246101534601,1696619080895205493,
-0.26324284076690674,0.12048953771591187,0.5572342093476461,1696619080905272543,
-0.2808704376220703,0.04530060291290283,0.47800503368220004,1696619080917169030,
-0.04127436876296997,0.13449066877365112,0.7053129640619468,1696619080925303317,
-0.06765961647033691,0.6268969774246216,0.5788696630761957,1696619080935385627,
-0.0748291015625,0.09099763631820679,0.5960441117347569,1696619080945304769,
0.13271564245224,-0.4478446841239929,0.6034487725517116,1696619080955261640,
0.5881465673446655,0.7495342493057251,0.5602253105665072,1696619080966141228,
-0.3528837561607361,0.35153478384017944,0.6668284742513777,1696619080975264428,
-0.005814492702484131,-0.07114672660827637,0.6024099592432511,1696619080985335242,
0.525787353515625,0.02530437707901001,0.5029094648535788,1696619080997270831,
0.07594990730285645,0.39872997999191284,0.7436538544913608,1696619081005318829,
-0.7291340827941895,0.3819350600242615,0.5860482198005108,1696619081015331235,
-0.28893303871154785,-0.18930572271347046,0.5742492257606291,1696619081025341213,
0.3494895100593567,0.3812839984893799,0.5652764532782872,1696619081035355076,
-0.17788070440292358,0.8139511346817017,0.4854472065947299,1696619081046783617,
-0.08457112312316895,0.014845848083496094,0.643035964112389,1696619081055366817,
0.20592325925827026,0.10876721143722534,0.5509256009674313,1696619081065427978,
0.21698778867721558,0.13479912281036377,0.4666755166886092,1696619081077402500,
-0.37488776445388794,-0.30247658491134644,0.7855826987149135,1696619081084536329,
0.45221245288848877,0.06814652681350708,0.5071968858388939,1696619081095464553,
0.031137168407440186,0.8996989727020264,0.5619400675022215,1696619081105420975,
-0.1872849464416504,-0.047952353954315186,0.5606689940218925,1696619081115446359,
0.15944021940231323,0.17595863342285156,0.49541933078295575,1696619081126803389,
0.328968346118927,0.9757261872291565,0.6684862334480633,1696619081135290891,
-0.23631292581558228,0.27785223722457886,0.5645920633681498,1696619081145421997,
0.5056608319282532,-0.15325355529785156,0.577705187626283,1696619081165353622,
0.1288468837738037,0.72873854637146,0.5833864937111787,1696619081175367555,
-0.3686824440956116,0.18553876876831055,0.5899790869211438,1696619081185383735,
0.11312490701675415,-0.7179523706436157,0.5834515903084231,1696619081195353087,
0.6381564140319824,0.3142043948173523,0.5091895970632343,1696619081206719793,
-0.39250504970550537,0.7298296689987183,0.6688548110961474,1696619081215360959,
-0.36916816234588623,0.2847810983657837,0.575461756512306,1696619081225383160,
0.3040802478790283,0.2513308525085449,0.46500290039258974,1696619081237743516,
0.1978495717048645,0.17188847064971924,0.7634760545269631,1696619081245426626,
-0.383652925491333,0.4923586845397949,0.6009280544063043,1696619081255416413,
-0.1974666714668274,-0.13266980648040771,0.5924940427750436,1696619081265416036,
0.3252066969871521,0.24642205238342285,0.5729921300043311,1696619081275487660,
-0.1916467547416687,0.5012750029563904,0.5134467575029541,1696619081286405524,
-0.2732970118522644,-0.15996694564819336,0.6058558047736698,1696619081295349862,
0.5967779159545898,0.36839818954467773,0.5270018896140992,1696619081305488979,
0.44016414880752563,0.32633745670318604,0.42834648894037614,1696619081318136952,
-0.10842329263687134,-0.12743264436721802,0.7805925760734489,1696619081325441084,
-0.19716709852218628,-0.1517205834388733,0.5791894111914908,1696619081335485219,
0.13600021600723267,0.03920871019363403,0.5863392297382901,1696619081345525357,
0.030803203582763672,0.7357811331748962,0.5941945418247251,1696619081355403470,
-0.738711416721344,0.06095921993255615,0.5297393267925619,1696619081366193582,
0.28548747301101685,0.21370476484298706,0.59376822861832,1696619081375482905,
0.5301464200019836,0.8617696762084961,0.5323426267663576,1696619081385482473,
0.2051437497138977,-0.12052345275878906,0.41587023796824907,1696619081398220767,
-0.019819021224975586,-0.10141521692276001,0.858807187577794,1696619081404575804,
0.377094030380249,0.19600993394851685,0.5029656190661248,1696619081415517249,
-0.30054980516433716,0.07983183860778809,0.6122581134237343,1696619081424568093,
-0.9724764823913574,-0.18069303035736084,0.5108053605165759,1696619081435495643,
-0.21619385480880737,-0.37958699464797974,0.5065355148486863,1696619081446653554,
0.5396379232406616,0.9483015537261963,0.6445412198341155,1696619081455475790,
0.5353913307189941,0.6132040023803711,0.6258099736545493,1696619081464564593,
-0.3569517731666565,0.15979903936386108,0.41792145714162515,1696619081478476688,
0.17241734266281128,0.5731422901153564,0.8269371492953754,1696619081485617044,
-0.12692922353744507,0.026049494743347168,0.6614220750695827,1696619081494559867,
-0.2921435832977295,0.14514321088790894,0.5305425097329227,1696619081505611205,
0.2568661570549011,0.2230454683303833,0.5573996755827534,1696619081515695355,
0.31281328201293945,-0.012514770030975342,0.5148584125220407,1696619081526285367,
0.2779461145401001,0.33513790369033813,0.5869528943973161,1696619081535518787,
-0.49965816736221313,-0.08326631784439087,0.5388284015349727,1696619081545598769,
0.06721121072769165,0.6995537281036377,0.4283663977397643,1696619081558222666,
0.559897243976593,0.23088997602462769,0.736109355923019,1696619081565619042,
-0.5334827303886414,-0.37045979499816895,0.5561801181987427,1696619081575639264,
-0.2707003355026245,0.3266233801841736,0.55696783979906,1696619081585737636,
0.07177215814590454,0.11457204818725586,0.5449857748499356,1696619081596031485,
0.05914551019668579,-0.02803260087966919,0.5338083856606936,1696619081606527664,
0.40857774019241333,0.40311717987060547,0.5970863011318399,1696619081615705118,
0.13496458530426025,0.8989112377166748,0.5291167116414056,1696619081625710887,
-0.3897824287414551,-0.19411194324493408,0.5047349150516568,1696619081645652735,
-0.2403620481491089,0.3898240327835083,0.5061421385180265,1696619081655663690,
0.6743276119232178,0.15054404735565186,0.5190090068849583,1696619081665745151,
0.0982169508934021,-0.06672632694244385,0.5555321969407014,1696619081675628568,
0.05260425806045532,-0.04668116569519043,0.5032678687986276,1696619081686767094,
-0.31779682636260986,0.49575555324554443,0.6280719703518921,1696619081695669049,
-0.2037142515182495,0.5143654346466064,0.5473502039237015,1696619081705677445,
0.08864045143127441,0.5413551926612854,0.5238612239618058,1696619081725722393,
0.5436394214630127,0.2722889184951782,0.518360648561787,1696619081735699550,
-0.3064095973968506,0.0913017988204956,0.5237931224929818,1696619081745725066,
-0.14757108688354492,0.3048011064529419,0.5133240335550192,1696619081755974886,
-0.1255750060081482,-0.12911128997802734,0.5437515388681703,1696619081775746989,
0.21326249837875366,0.06710940599441528,0.5462887730945206,1696619081785875279,
0.3627902865409851,0.3054484724998474,0.5583554795480028,1696619081805751591,
-0.12236136198043823,-0.3540816903114319,0.5593051528690357,1696619081815781354,
0.1092829704284668,0.5857077836990356,0.5608203849973383,1696619081825821040,
-0.23000270128250122,0.4250427484512329,0.5560572363744173,1696619081835784660,
-0.38743656873703003,-0.2907256484031677,0.48411903465782186,1696619081846996029,
-0.4444507360458374,0.13724994659423828,0.5956198082026257,1696619081855995971,
-0.12664300203323364,0.6343137621879578,0.5470723524040606,1696619081865825780,
0.43606895208358765,0.5274572968482971,0.4359686580580317,1696619081878313415,
0.13248991966247559,-0.41347450017929077,0.7236255848628744,1696619081885885675,
0.03202712535858154,0.10181301832199097,0.5564227891851152,1696619081895870553,
-0.3703606128692627,0.6182950139045715,0.5506848595575772,1696619081905958745,
-0.27087557315826416,-0.19985949993133545,0.552693805823989,1696619081915887038,
-0.007816016674041748,0.2854180335998535,0.5595963414854981,1696619081925677450,
0.02527695894241333,0.48466718196868896,0.5408403059821978,1696619081935887718,
0.5963438153266907,0.25974005460739136,0.5561932718591266,1696619081945940684,
0.15037578344345093,0.26258236169815063,0.5602140348489297,1696619081965982912,
0.2860146760940552,0.9468457102775574,0.5558366783152864,1696619081975960073,
-0.2883182764053345,-0.3786659240722656,0.5407055990710339,1696619081986088257,
-0.2136300802230835,-0.43104082345962524,0.5389153473935344,1696619081996422218,
-0.11541545391082764,0.4906097650527954,0.5685966526688538,1696619082006323684,
0.309822678565979,-0.08748459815979004,0.5812208596247164,1696619082026023494,
0.13000553846359253,0.2628401517868042,0.4669155114084814,1696619082038308221,
-0.17689579725265503,0.7207229137420654,0.8421144743597596,1696619082045080592,
-0.17922359704971313,0.48612678050994873,0.5093633276845045,1696619082056051731,
-0.17373591661453247,-0.38625890016555786,0.6096248948152503,1696619082065106064,
0.20395314693450928,0.46707457304000854,0.5491690787463545,1696619082075031475,
0.18841302394866943,0.10610872507095337,0.4583793985601959,1696619082086687957,
-0.3381771445274353,-0.06942123174667358,0.5526903959559805,1696619082096122545,
0.03419041633605957,0.5777530670166016,0.49541524275293863,1696619082106229526,
-0.004429638385772705,0.18092495203018188,0.40529505586337083,1696619082118495665,
0.531109631061554,0.03940844535827637,0.6624550019390046,1696619082126228052,
0.07235991954803467,0.1852683424949646,0.5288031869519562,1696619082136346352,
0.06599956750869751,0.10312628746032715,0.5570729058478643,1696619082146243988,
-0.6422821283340454,-0.13698256015777588,0.5601441112721394,1696619082156125658,
0.012726843357086182,0.7847990393638611,0.5204689322214043,1696619082166677048,
-0.2321736216545105,0.4321706295013428,0.5657730330801742,1696619082176151041,
-0.0397375226020813,-0.21940773725509644,0.5166929759485694,1696619082186225499,
0.269003689289093,0.41765356063842773,0.4160202220594149,1696619082198442129,
0.12636232376098633,0.3726155757904053,0.628871630901314,1696619082206237056,
0.26216965913772583,0.25367772579193115,0.49090820512201777,1696619082216241364,
0.06545299291610718,-0.34390032291412354,0.5016599219531036,1696619082226317945,
0.08911830186843872,-0.16747945547103882,0.5300761521307494,1696619082236216617,
-0.20996206998825073,0.5608933568000793,0.5382381425714149,1696619082246245938,
0.05267953872680664,0.09523802995681763,0.5390752377801488,1696619082256259356,
0.050636112689971924,0.39779841899871826,0.5342983886880021,1696619082266343099,
0.0973467230796814,0.4575393795967102,0.42832190413711674,1696619082278895896,
0.17501085996627808,0.34745359420776367,0.7301631871202557,1696619082286345740,
-0.035270631313323975,0.6022388935089111,0.5507154864051483,1696619082296482902,
-0.26304757595062256,0.24807453155517578,0.5678795257967596,1696619082306388716,
-0.24093550443649292,0.04794853925704956,0.5680518915060495,1696619082316339351,
-0.06530827283859253,-0.30099284648895264,0.571334065791541,1696619082326393823,
-0.12163817882537842,0.1288875937461853,0.588637339774314,1696619082336345568,
-0.03422904014587402,0.5206461548805237,0.5852719728695143,1696619082346392360,
0.4994496703147888,-0.3827185034751892,0.4886312602154905,1696619082358253438,
0.20741206407546997,0.268416166305542,0.692887953188343,1696619082366431169,
0.39982128143310547,0.8854984641075134,0.5420085005763591,1696619082376507398,
-0.15329664945602417,0.3465145230293274,0.5367755858617309,1696619082386461431,
-0.2206137776374817,-0.1993335485458374,0.5363420610324229,1696619082396412849,
-0.10301238298416138,-0.10261905193328857,0.5178333487870056,1696619082406702816,
-0.2188403606414795,0.911738932132721,0.5358764953172429,1696619082416467946,
0.14728951454162598,0.20457780361175537,0.5080475879896558,1696619082426487239,
0.16017788648605347,-0.2723466157913208,0.4238522306704916,1696619082438273391,
0.10373920202255249,0.3903352618217468,0.6006345933367365,1696619082446467028,
-0.3122974634170532,-0.08915388584136963,0.48617795183628043,1696619082456677903,
0.13356786966323853,0.29427582025527954,0.5133646027810657,1696619082466629584,
0.02786731719970703,0.4325605034828186,0.5255777712325698,1696619082476663083,
0.011656582355499268,0.021658658981323242,0.5508697917388943,1696619082486594166,
-0.00955897569656372,-0.07003200054168701,0.5569881927829698,1696619082496531117,
-0.11619788408279419,0.15459579229354858,0.5415734455572317,1696619082506780079,
-0.08429974317550659,0.8064330816268921,0.4806481467296004,1696619082518265556,
-0.22436314821243286,0.06694597005844116,0.6495979092669681,1696619082526616479,
0.4367072582244873,-0.14242702722549438,0.5448271159259092,1696619082536603590,
0.5037939548492432,1.042799711227417,0.536391911221091,1696619082546676901,
0.05738896131515503,0.12487441301345825,0.5454126456024094,1696619082556601606,
0.09643977880477905,-0.35101521015167236,0.5504866908920537,1696619082566697188,
-0.24870258569717407,-0.001375436782836914,0.5630970030673655,1696619082576651886,
-0.025593340396881104,0.38659799098968506,0.552741218389728,1696619082586728616,
-0.27208226919174194,0.2830551266670227,0.45605596612034777,1696619082598730398,
0.09634315967559814,-0.09581828117370605,0.6734741143419011,1696619082606738433,
-0.029641926288604736,0.7883050441741943,0.533839613278591,1696619082616771194,
0.12652820348739624,-0.1500939130783081,0.5209663545344354,1696619082626926614,
-0.060728371143341064,0.31464290618896484,0.5335142328645938,1696619082636851714,
0.01115483045578003,0.5022466778755188,0.5327500627136545,1696619082646790290,
-0.3900182247161865,0.03800976276397705,0.5283231833395061,1696619082656720458,
-0.3178923726081848,-0.24817627668380737,0.5205016182515998,1696619082666780719,
-0.24710792303085327,-0.22129559516906738,0.46158976889028974,1696619082678255618,
0.33684492111206055,0.21150803565979004,0.6269293971545319,1696619082686790446,
0.06483161449432373,0.0562971830368042,0.5333410726715028,1696619082696782552,
0.018850982189178467,0.5390534996986389,0.5187188166135085,1696619082706886556,
-0.05435842275619507,0.2848241925239563,0.520020053844547,1696619082716829027,
-0.39755767583847046,0.006793677806854248,0.5149223897833045,1696619082726902787,
0.22744524478912354,0.6055845618247986,0.526124246771139,1696619082736814433,
0.15980970859527588,0.3773183226585388,0.5185499456494395,1696619082746853734,
0.4544006586074829,-0.026450932025909424,0.4569736982970504,1696619082758258848,
0.22713160514831543,-0.013704001903533936,0.6091023330688483,1696619082766875311,
0.15467756986618042,0.5029304623603821,0.5160438288965076,1696619082776960131,
0.08754748106002808,0.378521203994751,0.4141978767712329,1696619082789277214,
-0.5961462259292603,-0.5999757647514343,0.6760704160684112,1696619082796871300,
0.2020837664604187,0.044163286685943604,0.5289676356778966,1696619082806932253,
-0.04570239782333374,0.434565007686615,0.5501625940840128,1696619082816911187,
0.3662348985671997,0.322084903717041,0.5554583701120421,1696619082826938004,
0.017567157745361328,0.19578593969345093,0.4803342164514771,1696619082838622690,
0.06047999858856201,0.2358296513557434,0.6722723541841312,1696619082846938590,
0.2573719024658203,0.8307744860649109,0.5476253787142291,1696619082856971215,
-0.08021479845046997,0.46505868434906006,0.4604434918412836,1696619082868544485,
0.03228873014450073,-0.06211000680923462,0.6217343989590269,1696619082876959727,
-0.23371750116348267,-0.15300166606903076,0.5174727203508216,1696619082887050106,
0.13907164335250854,-0.14902174472808838,0.5248614262125112,1696619082897009555,
-0.20511430501937866,0.387533962726593,0.5164494918466466,1696619082907046052,
-0.06997090578079224,0.007654786109924316,0.4352138795744838,1696619082918697767,
-0.15962940454483032,-0.2714990973472595,0.6042524148385598,1696619082927047222,
-0.054422616958618164,0.4800090789794922,0.5050424487656489,1696619082937069854,
0.21649658679962158,0.6724094748497009,0.4505755800911624,1696619082948354164,
-0.1597347855567932,0.6160645484924316,0.6600794045377798,1696619082956077014,
0.41335517168045044,-0.20174247026443481,0.5121908699193962,1696619082966123879,
-0.33276301622390747,0.09205567836761475,0.5227217727904928,1696619082976090480,
-0.014513909816741943,0.6484277248382568,0.46431513921190426,1696619082987161345,
-0.2692452669143677,-0.2786288261413574,0.4886781375108549,1696619082997550007,
-0.0060999393463134766,0.0279504656791687,0.5345189691190101,1696619083007148978,
-0.14882498979568481,0.40007483959198,0.5288399746808512,1696619083017127095,
-0.03284651041030884,0.2888791561126709,0.4242996911713355,1696619083029928920,
0.9262937307357788,0.22802525758743286,0.7611298837172289,1696619083037154682,
0.08865195512771606,-0.068889319896698,0.5472064265618312,1696619083047260317,
-0.1419547200202942,0.6633841395378113,0.550437715479991,1696619083057205554,
-0.4187980890274048,-0.07875710725784302,0.5343730146661497,1696619083067241031,
-0.0035061240196228027,0.028706669807434082,0.47430016564417615,1696619083078303324,
-0.35104817152023315,0.7110341787338257,0.5669027491218345,1696619083087249756,
-0.020813584327697754,0.1454395055770874,0.49469810848034473,1696619083097254006,
0.27832603454589844,0.3970354199409485,0.3796992819337314,1696619083110285907,
0.2148844599723816,0.2334616780281067,0.6973736798946328,1696619083117531394,
-0.0451509952545166,-0.15455186367034912,0.5294465849510528,1696619083127378553,
0.008894622325897217,0.16365665197372437,0.5231621903430511,1696619083137529510,
-0.16060912609100342,0.833735466003418,0.5469275748743198,1696619083147379994,
0.2072979211807251,-0.18405300378799438,0.49225583755473995,1696619083158284094,
0.5011661052703857,-0.07759714126586914,0.5829221624109331,1696619083167407286,
-0.1844199299812317,0.9009615182876587,0.5314134155275636,1696619083177403007,
0.10946911573410034,0.48845839500427246,0.39875645230992585,1696619083190385137,
-0.2878275513648987,-0.1181023120880127,0.7246722988385627,1696619083197337373,
0.10510432720184326,0.015372633934020996,0.49502055245677234,1696619083207439383,
-0.2858102321624756,0.23752039670944214,0.49021707326258596,1696619083217808705,
0.17136025428771973,0.06383800506591797,0.5329516450882111,1696619083227480561,
0.5363026857376099,-0.25747156143188477,0.44810258961435884,1696619083238859080,
-0.04161238670349121,0.3492475748062134,0.5916518576049979,1696619083247431925,
-0.1308230757713318,0.1124613881111145,0.5040051360200668,1696619083257482787,
-0.14639705419540405,0.3895111083984375,0.3926500590902426,1696619083270423852,
0.211847186088562,0.8429816961288452,0.7288622328403775,1696619083277498437,
-0.17972606420516968,-0.015490472316741943,0.5236383504399881,1696619083287508686,
0.13812071084976196,-0.08394503593444824,0.5899511578555202,1696619083296538021,
-0.14084076881408691,0.33206284046173096,0.5344181749894539,1696619083306566507,
-0.01076972484588623,0.42127352952957153,0.45310292155974174,1696619083318306184,
-0.2975388765335083,-0.0961230993270874,0.6328561703691845,1696619083326537364,
-0.46064984798431396,-0.24134749174118042,0.5112269809002298,1696619083336564928,
0.8136140704154968,0.8531652688980103,0.37487735858643306,1696619083350316868,
0.4246898293495178,0.120846688747406,0.8337683927449469,1696619083356560290,
0.517023503780365,-0.3163554072380066,0.4826363990913782,1696619083367633135,
-0.2386593222618103,0.3915896415710449,0.547300395217582,1696619083377621154,
-0.048506736755371094,0.33402132987976074,0.5424405659170707,1696619083387663345,
-0.2359306812286377,0.39894211292266846,0.48582425304812504,1696619083398671797,
-0.777850329875946,0.07726246118545532,0.5805302892809476,1696619083407675179,
0.4557071328163147,0.38824462890625,0.520694047451892,1696619083417623390,
0.03862673044204712,0.21106255054473877,0.3891679560611156,1696619083430730116,
0.6365912556648254,0.10804116725921631,0.7288818511560095,1696619083437645120,
0.16696441173553467,0.6369537711143494,0.4979021336599789,1696619083447700410,
-0.023309409618377686,-0.2259846329689026,0.5025453588575067,1696619083457735515,
-0.6276807188987732,-0.48803478479385376,0.5243712551711419,1696619083467693256,
-0.36139947175979614,0.23388981819152832,0.4996367738651237,1696619083478261978,
0.5086865425109863,0.18898677825927734,0.5550098906524971,1696619083487711188,
0.227247953414917,0.21498024463653564,0.5050653823661168,1696619083497892003,
-0.30978310108184814,0.5977610945701599,0.4954209059420906,1696619083517844108,
0.2665172219276428,0.608064591884613,0.4821709627853736,1696619083527791404,
-0.4996911287307739,-0.20813113451004028,0.4757608235765272,1696619083537818474,
0.07930463552474976,0.10352194309234619,0.48785708770205943,1696619083547795875,
0.07973718643188477,-0.08455860614776611,0.4568967743107494,1696619083558758358,
0.13214218616485596,0.07251197099685669,0.550424684091156,1696619083567845943,
0.3466334342956543,0.468825101852417,0.47859775997274995,1696619083578099224,
-0.43862318992614746,0.11606580018997192,0.3973217935221732,1696619083590380140,
0.5049508810043335,0.44709426164627075,0.6591299755761952,1696619083597822927,
-0.1274946928024292,0.44272375106811523,0.4893013284196706,1696619083607892106,
0.13252246379852295,0.3970494270324707,0.4950437944015354,1696619083617961497,
-0.26591867208480835,-0.23607730865478516,0.5060210792106543,1696619083627995638,
0.021562516689300537,-0.11423856019973755,0.502165721988575,1696619083638307290,
-0.04738032817840576,0.06505352258682251,0.526374673651699,1696619083648186835,
0.2022596001625061,-0.35687094926834106,0.5234423917036298,1696619083657997586,
-0.42805594205856323,0.5389761924743652,0.41424507311015724,1696619083670370190,
-0.045226871967315674,0.710207462310791,0.6784554540799187,1696619083677908199,
-0.12269073724746704,-0.05434209108352661,0.5013958210554617,1696619083687974550,
0.5366091132164001,-0.2807577848434448,0.5005425587797673,1696619083697965157,
-0.21925276517868042,0.5227546691894531,0.5055563734584541,1696619083707995546,
-0.24660128355026245,0.46939390897750854,0.4927691432130642,1696619083718307882,
0.09919321537017822,-0.2776075601577759,0.5126455851002985,1696619083728021235,
-0.3480926752090454,0.49334031343460083,0.4831789702253667,1696619083738207142,
0.3819175958633423,0.5221520662307739,0.3866690807592248,1696619083750854760,
-0.34505152702331543,0.23625224828720093,0.6807067696465966,1696619083758008271,
0.4684925079345703,0.22115778923034668,0.4845457330649122,1696619083768076886,
-0.17331469058990479,-0.17807823419570923,0.4995336026292042,1696619083778110809,
-0.11518937349319458,-0.18828606605529785,0.5183258952726062,1696619083788059677,
0.24306392669677734,-0.13438063859939575,0.5067237708380894,1696619083798319244,
-0.31309568881988525,0.5093514323234558,0.537621360682681,1696619083808092200,
0.11136764287948608,0.2517147660255432,0.5227963203711635,1696619083818105709,
-0.34618550539016724,-0.051431238651275635,0.4206526024847484,1696619083830420270,
0.6115943789482117,1.0298117399215698,0.6698213760046262,1696619083838098124,
0.34714603424072266,0.3856661915779114,0.5089844970432389,1696619083848139873,
0.25203633308410645,-0.18272149562835693,0.567514344022871,1696619083857198718,
0.04306674003601074,0.2143823504447937,0.5150510446655762,1696619083867166549,
-0.39472895860671997,0.2311183214187622,0.4669564877333483,1696619083878023946,
0.06890755891799927,0.1747930645942688,0.49019668182894766,1696619083888162293,
-0.4209887981414795,-0.2634129524230957,0.48543110164300635,1696619083898184021,
0.46940338611602783,0.3595138192176819,0.4055074865505784,1696619083910313255,
0.3598141074180603,0.22002631425857544,0.6196471482534247,1696619083918413315,
0.3407556414604187,0.00417250394821167,0.5138807828056727,1696619083928235462,
-0.44363898038864136,0.634198009967804,0.49777390224333257,1696619083938264070,
-0.007940888404846191,-0.12207198143005371,0.4852638984013566,1696619083948275143,
-0.24345964193344116,-0.177884042263031,0.45872783020977276,1696619083958673756,
-0.8618019223213196,0.6948298215866089,0.48827404555256476,1696619083968263005,
0.452981173992157,0.4784049391746521,0.4666733175043831,1696619083978300191,
-0.06193739175796509,-0.022859692573547363,0.4023926921843951,1696619083990286720,
0.4512680768966675,-0.002349853515625,0.6265006595553212,1696619083998289921,
-0.28671616315841675,0.5937293171882629,0.5145716721080765,1696619084008336320,
0.3093329071998596,0.10280781984329224,0.5180458399238125,1696619084018339105,
-0.12620729207992554,-0.4519662857055664,0.5185601757013455,1696619084028378586,
-0.4978388547897339,0.3527381420135498,0.5053480776584427,1696619084038711893,
0.3910441994667053,0.2974396347999573,0.5316306032427593,1696619084048364685,
0.20429837703704834,0.11560952663421631,0.4924676649539247,1696619084058468121,
0.10228085517883301,0.35024791955947876,0.38505130256768355,1696619084070999871,
-0.504194974899292,0.3619459867477417,0.6373492283194686,1696619084078394598,
0.546380341053009,0.4421979784965515,0.46780839809354174,1696619084088412197,
0.039845943450927734,0.08294534683227539,0.47321415147767926,1696619084098437751,
-0.11623471975326538,0.2935730218887329,0.48373137239722613,1696619084108453622,
-0.4806094169616699,-0.2920830249786377,0.49001848246926133,1696619084118628231,
-0.012788891792297363,-0.21473795175552368,0.5215570179793847,1696619084128473654,
0.09353601932525635,0.5023514032363892,0.5198813516950628,1696619084138487859,
